COUNTER, GYROX, GYROY, GYROZ, ACCX, ACCY, ACCZ, MAGX, MAGY, MAGZ, TIMESTAMP
36,8106,8121,8119,5179,7174,5106,8650,8170,8208,79.5625,
37,8101,8141,8107,5158,7178,5081,8653,8172,8209,82.6033,
38,8097,8157,8107,5144,7159,5147,8646,8166,8207,82.6189,
39,8103,8209,8112,5137,7108,5187,8644,8168,8205,82.6346,
40,8113,8214,8105,5182,7109,5202,8646,8169,8208,82.6504,
41,8132,8192,8106,5269,7111,5248,8649,8168,8208,82.6662,
42,8145,8156,8104,5267,7104,5243,8639,8163,8205,82.6819,
43,8155,8098,8120,5212,7094,5144,8650,8163,8206,82.6977,
44,8158,8091,8118,5211,7117,5109,8650,8168,8207,82.7134,
45,8154,8087,8112,5220,7138,5117,8653,8165,8207,82.7292,
46,8147,8080,8114,5172,7127,5137,8646,8166,8204,82.745,
47,8140,8088,8123,5174,7139,5145,8652,8167,8205,82.7607,
48,8129,8098,8143,5177,7137,5153,8649,8162,8204,82.7765,
49,8120,8106,8147,5166,7144,5220,8647,8165,8205,82.7922,
50,8108,8086,8154,5122,7136,5234,8645,8164,8205,82.808,
51,8105,8091,8144,5094,7130,5180,8649,8164,8203,82.8238,
52,8093,8151,8141,5078,7117,5172,8647,8161,8203,82.8395,
53,8093,8187,8132,5147,7096,5164,8648,8166,8201,82.8553,
54,8084,8240,8148,5190,7087,5169,8647,8164,8203,82.8711,
55,8087,8255,8154,5200,7090,5200,8656,8167,8206,82.8868,
56,8101,8240,8158,5198,7095,5185,8649,8166,8205,82.9026,
57,8101,8224,8154,5160,7102,5152,8647,8168,8206,82.9183,
58,8108,8255,8142,5113,7108,5114,8650,8172,8205,82.9341,
59,8103,8278,8133,5114,7095,5140,8648,8166,8208,82.9499,
60,8108,8269,8111,5167,7094,5149,8653,8168,8210,82.9656,
61,8102,8263,8096,5233,7082,5201,8647,8168,8210,82.9814,
62,8108,8217,8097,5275,7083,5191,8647,8167,8211,82.9971,
63,8118,8191,8103,5256,7083,5154,8653,8165,8210,83.0129,
0,8124,8177,8108,5232,7104,5071,8647,8163,8208,83.0287,
1,8118,8194,8119,5213,7126,5027,8651,8163,8210,83.0444,
2,8105,8223,8132,5173,7134,5042,8648,8171,8211,83.0602,
3,8104,8260,8122,5182,7131,5063,8648,8164,8212,83.0759,
4,8097,8259,8121,5195,7118,5109,8652,8160,8213,83.0917,
7,8103,8184,8054,5331,7031,5164,8641,8165,8215,83.139,
8,8113,8139,8051,5296,7001,5102,8656,8156,8213,83.1547,
9,8126,8110,8034,5261,6959,5126,8645,8155,8213,83.1705,
10,8136,8118,8031,5265,6920,5146,8649,8156,8214,83.1863,
11,8153,8130,8013,5284,6924,5158,8641,8153,8210,83.202,
12,8172,8094,8013,5363,6905,5185,8647,8153,8215,83.2178,
13,8182,8071,8015,5365,6900,5173,8641,8153,8209,83.2335,
14,8189,8021,8043,5378,6887,5167,8648,8156,8212,83.2493,
15,8201,7998,8057,5298,6883,5116,8643,8151,8211,83.2651,
16,8215,7991,8065,5297,6899,5123,8648,8156,8210,83.2808,
17,8223,7994,8074,5355,6957,5061,8647,8149,8209,83.2966,
18,8230,8002,8107,5272,6947,4988,8647,8152,8207,83.3123,
19,8225,8027,8115,5250,6936,4981,8651,8151,8207,83.3281,
20,8204,8100,8122,5252,6962,4962,8645,8148,8206,83.3439,
21,8188,8139,8128,5276,6982,4979,8651,8153,8207,83.3596,
22,8154,8181,8148,5291,7022,4988,8648,8150,8204,83.3754,
23,8136,8199,8177,5278,7020,5051,8646,8154,8208,83.3911,
24,8091,8242,8201,5292,7007,5137,8652,8149,8207,83.4069,
25,8086,8241,8217,5279,6956,5212,8645,8151,8209,83.4227,
26,8088,8177,8210,5300,6965,5202,8652,8156,8207,83.4384,
27,8089,8140,8220,5227,6979,5145,8645,8132,8206,83.4542,
28,8109,8151,8212,5195,6977,5101,8646,8153,8206,83.4699,
29,8104,8170,8196,5246,7009,5139,8650,8155,8209,83.4857,
30,8101,8161,8206,5211,7025,5164,8646,8154,8209,83.5015,
31,8110,8144,8209,5231,7029,5154,8654,8158,8209,83.5172,
32,8119,8158,8213,5184,7015,5205,8644,8139,8209,83.533,
33,8129,8145,8208,5219,7054,5187,8648,8155,8208,83.5487,
34,8133,8128,8199,5206,7055,5157,8649,8153,8210,83.5645,
35,8145,8106,8183,5236,7060,5147,8647,8152,8207,83.5803,
36,8142,8104,8176,5246,7067,5168,8649,8156,8207,83.596,
37,8141,8056,8175,5222,7064,5133,8651,8154,8205,83.6118,
38,8144,8060,8175,5209,7058,5120,8646,8156,8206,83.6276,
39,8138,8081,8167,5216,7069,5131,8643,8158,8204,83.6433,
40,8136,8047,8176,5216,7055,5113,8648,8154,8206,83.6591,
41,8130,8039,8173,5187,7063,5068,8644,8159,8204,83.6748,
42,8119,8103,8174,5189,7093,5023,8649,8173,8204,83.6906,
43,8113,8141,8184,5211,7083,5092,8646,8156,8205,83.7064,
44,8104,8175,8193,5209,7094,5113,8654,8163,8204,83.7221,
45,8104,8187,8204,5170,7108,5116,8645,8159,8205,83.7379,
46,8098,8215,8197,5177,7099,5112,8656,8157,8206,83.7536,
47,8107,8235,8196,5183,7088,5171,8640,8165,8204,83.7694,
48,8106,8238,8205,5215,7095,5225,8647,8157,8207,83.7852,
49,8116,8227,8188,5233,7077,5231,8644,8159,8207,83.8009,
50,8138,8194,8182,5233,7083,5205,8648,8150,8209,83.8167,
51,8143,8188,8176,5202,7073,5121,8646,8162,8208,83.8324,
52,8151,8168,8162,5190,7089,5107,8645,8158,8208,83.8482,
53,8150,8159,8165,5177,7121,5071,8646,8158,8209,83.864,
54,8132,8159,8152,5174,7100,5049,8646,8157,8208,83.8797,
55,8112,8183,8146,5182,7095,5070,8645,8165,8210,83.8955,
56,8097,8198,8143,5251,7067,5109,8641,8159,8208,83.9112,
57,8079,8218,8134,5251,7043,5157,8652,8165,8209,83.927,
58,8079,8208,8133,5311,7000,5194,8647,8162,8211,83.9428,
59,8101,8187,8109,5253,6971,5214,8647,8163,8210,83.9585,
60,8107,8173,8097,5287,6945,5235,8646,8159,8210,83.9743,
61,8145,8169,8110,5280,6933,5246,8644,8157,8211,83.99,
62,8159,8176,8114,5289,6925,5257,8653,8159,8213,84.0058,
63,8199,8138,8132,5246,6937,5227,8646,8160,8211,84.0216,
0,8213,8130,8130,5245,6956,5199,8651,8159,8210,84.0373,
1,8231,8140,8145,5244,7014,5121,8645,8160,8210,84.0531,
2,8235,8144,8165,5266,7059,5084,8647,8160,8213,84.0688,
5,8226,8138,8178,5130,7104,5025,8648,8157,8212,84.1161,
6,8211,8160,8148,5181,7130,5000,8645,8160,8212,84.1319,
7,8203,8162,8153,5201,7152,4983,8651,8163,8210,84.1476,
8,8173,8165,8141,5223,7148,4969,8643,8160,8210,84.1634,
9,8158,8180,8139,5237,7138,5018,8648,8159,8211,84.1792,
10,8135,8167,8138,5253,7124,5071,8651,8155,8215,84.1949,
11,8121,8134,8138,5232,7075,5161,8644,8152,8212,84.2107,
12,8118,8090,8140,5219,7048,5129,8648,8162,8214,84.2264,
13,8121,8091,8122,5261,7035,5137,8652,8159,8214,84.2422,
14,8137,8112,8131,5348,7021,5188,8643,8157,8213,84.258,
15,8141,8117,8143,5311,7008,5206,8651,8161,8210,84.2737,
16,8161,8123,8147,5299,7012,5204,8646,8145,8210,84.2895,
17,8165,8120,8152,5246,7012,5192,8644,8161,8213,84.3053,
18,8186,8127,8149,5255,7031,5183,8643,8161,8214,84.321,
19,8194,8130,8150,5239,7062,5192,8647,8162,8210,84.3368,
20,8205,8122,8150,5279,7085,5179,8642,8164,8210,84.3525,
21,8219,8100,8158,5224,7088,5101,8647,8158,8208,84.3683,
22,8215,8105,8152,5229,7096,5135,8643,8160,8210,84.3841,
23,8221,8080,8139,5224,7081,5163,8645,8161,8210,84.3998,
24,8227,8059,8124,5205,7085,5229,8648,8162,8211,84.4156,
25,8260,8026,8101,5196,7111,5222,8642,8162,8207,84.4313,
26,8277,8005,8101,5139,7177,5087,8647,8167,8207,84.4471,
27,8309,8003,8095,5162,7252,4952,8652,8160,8209,84.4629,
28,8315,8023,8093,5187,7270,4933,8640,8157,8205,84.4786,
29,8308,8033,8093,5145,7305,4955,8647,8161,8205,84.4944,
30,8295,8016,8086,5125,7318,4938,8658,8159,8205,84.5101,
31,8266,7985,8059,5119,7310,4929,8646,8157,8204,84.5259,
32,8230,7974,8033,5142,7274,5011,8651,8160,8204,84.5417,
33,8220,7962,8022,5154,7257,5010,8657,8159,8202,84.5574,
34,8182,7963,8017,5194,7201,5067,8653,8170,8200,84.5732,
35,8173,7967,8006,5325,7124,5206,8652,8160,8201,84.5889,
36,8171,7945,8034,5280,7063,5244,8652,8159,8193,84.6047,
37,8175,7928,8044,5185,6998,5299,8649,8156,8194,84.6205,
38,8187,7904,8030,5160,6989,5304,8650,8156,8190,84.6362,
39,8192,7906,8028,5141,6977,5282,8653,8155,8189,84.652,
40,8194,7947,8049,5168,6999,5275,8651,8152,8187,84.6677,
41,8186,7971,8062,5195,7012,5296,8648,8152,8185,84.6835,
42,8175,8035,8103,5253,7054,5329,8655,8155,8182,84.6993,
43,8168,8061,8129,5267,7066,5347,8661,8153,8185,84.715,
44,8140,8093,8196,5201,7079,5371,8651,8150,8186,84.7308,
45,8135,8124,8209,5220,7129,5434,8653,8153,8185,84.7465,
46,8112,8126,8264,5158,7154,5454,8652,8156,8186,84.7623,
47,8089,8133,8292,5026,7198,5393,8652,8158,8184,84.7781,
48,8072,8157,8307,4983,7202,5358,8650,8157,8184,84.7938,
49,8057,8217,8312,4885,7195,5284,8650,8157,8186,84.8096,
50,8050,8247,8312,4888,7198,5235,8654,8163,8184,84.8253,
51,8033,8300,8299,4928,7209,5226,8659,8166,8187,84.8411,
52,8030,8324,8294,5056,7220,5271,8651,8159,8189,84.8569,
53,8036,8311,8291,5085,7231,5283,8649,8163,8190,84.8726,
54,8041,8296,8297,5176,7232,5262,8652,8156,8192,84.8884,
55,8054,8255,8299,5130,7225,5282,8650,8165,8191,84.9041,
56,8059,8224,8305,5100,7222,5297,8656,8163,8193,84.9199,
57,8076,8152,8256,5028,7201,5321,8649,8165,8192,84.9357,
58,8083,8109,8251,4991,7189,5289,8654,8167,8191,84.9514,
59,8082,8049,8202,5012,7164,5265,8650,8159,8189,84.9672,
60,8090,8019,8177,4924,7101,5269,8650,8169,8194,84.983,
61,8092,8001,8158,4940,7078,5239,8656,8165,8189,84.9987,
62,8099,8027,8141,5038,7064,5235,8650,8166,8190,85.0145,
63,8114,8046,8148,5072,7052,5244,8651,8167,8190,85.0302,
0,8130,8067,8183,5216,7060,5249,8651,8167,8185,85.046,
1,8137,8069,8221,5175,7070,5233,8651,8167,8185,85.0618,
2,8146,8065,8269,5153,7075,5220,8644,8169,8186,85.0775,
3,8134,8060,8285,5131,7099,5216,8653,8160,8185,85.0933,
4,8118,8048,8294,5120,7128,5225,8653,8176,8184,85.109,
5,8109,8042,8304,5061,7129,5231,8653,8155,8183,85.1248,
6,8086,8033,8315,4987,7156,5213,8653,8172,8182,85.1406,
7,8066,8033,8319,4982,7157,5220,8655,8179,8182,85.1563,
8,8040,8073,8320,5012,7169,5268,8652,8187,8181,85.1721,
9,8034,8113,8318,4974,7166,5295,8649,8178,8181,85.1878,
10,8041,8137,8322,4951,7169,5340,8655,8177,8178,85.2036,
11,8060,8161,8297,4988,7193,5406,8649,8178,8180,85.2194,
12,8073,8158,8289,4982,7199,5421,8649,8182,8180,85.2351,
13,8103,8141,8272,4975,7221,5437,8647,8188,8182,85.2509,
14,8121,8137,8267,4956,7258,5426,8656,8185,8185,85.2666,
15,8157,8152,8247,4953,7275,5395,8653,8190,8182,85.2824,
16,8165,8158,8242,4971,7306,5364,8649,8184,8181,85.2982,
17,8175,8180,8236,4943,7321,5338,8649,8181,8180,85.3139,
18,8176,8206,8225,4931,7343,5296,8654,8186,8180,85.3297,
19,8162,8241,8204,4990,7356,5302,8650,8186,8183,85.3454,
20,8164,8249,8192,5020,7359,5311,8652,8190,8186,85.3612,
21,8151,8232,8188,5013,7359,5291,8652,8185,8185,85.377,
22,8144,8215,8185,5004,7355,5291,8656,8186,8186,85.3927,
23,8129,8194,8166,5016,7339,5288,8651,8182,8184,85.4085,
24,8119,8193,8171,5031,7309,5256,8651,8185,8186,85.4242,
25,8117,8198,8159,5052,7297,5262,8648,8191,8186,85.44,
26,8107,8198,8181,5080,7277,5310,8648,8183,8186,85.4558,
27,8104,8189,8185,5073,7270,5309,8655,8185,8187,85.4715,
28,8100,8173,8190,5065,7242,5317,8652,8189,8186,85.4873,
29,8097,8166,8195,5075,7221,5353,8651,8188,8189,85.503,
30,8110,8155,8212,5093,7215,5353,8656,8190,8187,85.5188,
31,8121,8147,8223,5067,7232,5344,8653,8186,8188,85.5346,
32,8133,8163,8238,5080,7248,5352,8646,8190,8187,85.5503,
33,8147,8167,8251,5109,7281,5374,8649,8183,8189,85.5661,
34,8176,8188,8282,5093,7301,5376,8650,8190,8187,85.5818,
35,8184,8187,8294,5075,7332,5360,8651,8197,8192,85.5976,
36,8201,8173,8318,5014,7380,5335,8651,8197,8190,85.6134,
37,8206,8186,8325,4972,7400,5294,8646,8194,8189,85.6291,
41,8146,8243,8344,5043,7550,5189,8648,8198,8191,85.6922,
42,8131,8217,8343,5030,7561,5194,8652,8208,8194,85.7079,
43,8112,8189,8320,4964,7579,5211,8650,8194,8194,85.7237,
44,8098,8175,8310,4924,7573,5236,8652,8202,8192,85.7395,
45,8096,8174,8283,4902,7573,5238,8661,8205,8193,85.7552,
46,8092,8186,8265,4912,7563,5220,8651,8208,8193,85.771,
47,8086,8207,8225,4999,7570,5247,8646,8211,8194,85.7867,
48,8085,8209,8204,5035,7565,5294,8644,8209,8196,85.8025,
49,8093,8175,8197,4969,7546,5237,8649,8206,8196,85.8183,
50,8103,8169,8187,4963,7537,5222,8647,8207,8196,85.834,
51,8098,8195,8177,5014,7518,5248,8649,8196,8196,85.8498,
52,8111,8208,8175,5049,7515,5231,8649,8213,8198,85.8655,
53,8117,8224,8172,5052,7517,5217,8643,8213,8202,85.8813,
54,8130,8217,8165,5058,7503,5229,8647,8207,8198,85.8971,
55,8133,8212,8158,5066,7501,5223,8647,8207,8199,85.9128,
59,8148,8161,8115,5086,7474,5190,8647,8208,8202,85.9759,
60,8147,8164,8106,5110,7467,5201,8648,8210,8199,85.9916,
61,8144,8158,8111,5097,7474,5202,8647,8208,8200,86.0074,
62,8147,8157,8125,5092,7480,5208,8654,8206,8199,86.0231,
63,8155,8164,8123,5122,7487,5216,8656,8208,8200,86.0389,
0,8147,8146,8149,5065,7481,5201,8644,8206,8201,86.0547,
1,8146,8138,8148,5046,7486,5185,8650,8204,8202,86.0704,
2,8150,8143,8150,5062,7493,5175,8647,8210,8202,86.0862,
3,8130,8135,8153,5088,7490,5194,8644,8208,8202,86.1019,
4,8134,8136,8154,5110,7498,5198,8646,8207,8196,86.1177,
5,8131,8127,8169,5107,7503,5219,8645,8209,8198,86.1335,
6,8121,8125,8174,5106,7517,5234,8638,8207,8198,86.1492,
7,8118,8118,8189,5057,7525,5239,8645,8205,8200,86.165,
8,8119,8122,8188,5022,7515,5244,8647,8212,8197,86.1807,
9,8120,8126,8184,4999,7518,5231,8643,8206,8195,86.1965,
10,8122,8125,8174,4993,7526,5232,8649,8209,8199,86.2123,
11,8134,8144,8153,4995,7523,5235,8644,8212,8200,86.228,
12,8133,8148,8139,5021,7525,5235,8649,8209,8200,86.2438,
13,8140,8160,8132,5042,7512,5227,8647,8207,8199,86.2595,
14,8140,8160,8132,5043,7506,5228,8646,8209,8200,86.2753,
15,8138,8161,8128,5050,7499,5226,8649,8209,8199,86.2911,
16,8130,8157,8126,5047,7494,5220,8656,8211,8202,86.3068,
19,8137,8142,8110,5049,7470,5235,8655,8206,8196,86.3541,
20,8139,8128,8099,5052,7454,5240,8648,8204,8199,86.3699,
21,8141,8118,8100,5055,7453,5258,8652,8204,8198,86.3856,
22,8154,8111,8091,5087,7473,5260,8652,8211,8198,86.4014,
23,8158,8095,8100,5025,7460,5183,8646,8205,8196,86.4172,
24,8159,8106,8089,5024,7456,5161,8652,8206,8200,86.4329,
25,8152,8126,8080,5081,7475,5223,8648,8225,8197,86.4487,
26,8144,8116,8100,5088,7481,5223,8640,8205,8196,86.4644,
27,8142,8090,8104,5064,7480,5190,8645,8206,8196,86.4802,
28,8124,8088,8124,5025,7471,5184,8648,8205,8196,86.496,
29,8107,8120,8131,5013,7474,5216,8645,8204,8197,86.5117,
30,8101,8120,8128,4991,7474,5264,8649,8208,8194,86.5275,
31,8095,8114,8115,4984,7455,5267,8651,8207,8193,86.5432,
32,8100,8113,8109,4998,7455,5288,8651,8206,8196,86.559,
33,8120,8104,8098,5005,7440,5278,8645,8207,8192,86.5748,
34,8124,8100,8096,4976,7437,5280,8660,8203,8193,86.5905,
35,8142,8117,8065,5016,7405,5324,8649,8206,8192,86.6063,
36,8161,8134,8052,5053,7403,5291,8650,8204,8190,86.622,
37,8193,8134,8048,5077,7416,5288,8653,8205,8191,86.6378,
38,8204,8134,8051,5027,7414,5257,8648,8201,8192,86.6536,
39,8222,8145,8059,5026,7408,5263,8652,8205,8194,86.6693,
40,8226,8146,8055,4976,7425,5236,8645,8198,8194,86.6851,
41,8236,8171,8057,5030,7436,5187,8649,8198,8195,86.7008,
42,8226,8187,8050,5027,7444,5195,8655,8199,8194,86.7166,
43,8207,8211,8048,5040,7457,5197,8652,8201,8197,86.7324,
44,8180,8233,8057,5040,7436,5197,8659,8197,8195,86.7481,
45,8167,8240,8047,5143,7421,5227,8647,8197,8196,86.7639,
46,8151,8206,8064,5165,7387,5216,8648,8193,8197,86.7796,
47,8150,8181,8076,5154,7370,5196,8652,8194,8197,86.7954,
48,8151,8153,8071,5133,7369,5182,8649,8196,8199,86.8112,
49,8145,8134,8086,5114,7367,5164,8644,8192,8193,86.8269,
50,8135,8121,8094,5087,7351,5178,8650,8193,8195,86.8427,
51,8143,8138,8090,5086,7338,5196,8650,8192,8195,86.8584,
52,8132,8151,8093,5073,7344,5157,8649,8193,8195,86.8742,
53,8128,8154,8099,5031,7331,5134,8656,8192,8194,86.89,
54,8106,8220,8124,5032,7356,5142,8643,8194,8195,86.9057,
55,8101,8258,8127,5056,7370,5132,8653,8189,8199,86.9215,
56,8087,8308,8136,5206,7394,5278,8648,8189,8198,86.9372,
57,8067,8287,8171,5223,7378,5384,8642,8192,8203,86.953,
58,8076,8240,8180,5186,7343,5368,8647,8200,8198,86.9688,
59,8092,8195,8182,5037,7345,5294,8647,8196,8201,86.9845,
60,8103,8220,8184,4954,7339,5285,8650,8196,8203,87.0003,
61,8136,8303,8172,5000,7360,5316,8650,8192,8202,87.016,
62,8147,8317,8160,5013,7357,5320,8646,8190,8206,87.0318,
63,8179,8295,8147,5050,7367,5300,8646,8181,8206,87.0476,
0,8189,8267,8136,5185,7378,5251,8643,8192,8207,87.0633,
1,8202,8194,8123,5153,7381,5236,8647,8192,8205,87.0791,
2,8204,8141,8111,5123,7397,5152,8651,8192,8208,87.0948,
3,8183,8107,8107,5114,7391,5162,8651,8195,8204,87.1106,
6,8202,7975,8126,5059,7402,5071,8644,8190,8199,87.1579,
7,8203,8016,8101,5104,7397,5150,8649,8191,8200,87.1737,
8,8204,7976,8090,5055,7393,5176,8648,8194,8202,87.1894,
9,8210,7955,8076,5041,7386,5240,8646,8193,8198,87.2052,
10,8232,7954,8051,4944,7356,5226,8653,8190,8195,87.2209,
11,8239,7962,8034,4944,7342,5261,8656,8190,8192,87.2367,
12,8269,8000,8004,4963,7336,5343,8649,8187,8194,87.2525,
13,8296,8022,7999,5031,7336,5363,8653,8191,8195,87.2682,
14,8342,8034,7980,5027,7336,5376,8652,8186,8193,87.284,
15,8354,8037,7982,5028,7355,5306,8651,8186,8190,87.2997,
16,8384,8074,7978,5001,7373,5314,8647,8186,8195,87.3155,
17,8389,8106,7981,5062,7410,5224,8649,8184,8190,87.3313,
18,8397,8176,7984,5090,7409,5219,8650,8187,8193,87.347,
19,8395,8193,7995,5114,7400,5226,8650,8176,8192,87.3628,
20,8380,8185,7999,5137,7397,5156,8652,8184,8194,87.3785,
21,8351,8191,8021,5174,7397,5143,8654,8178,8193,87.3943,
22,8335,8186,8043,5256,7405,5128,8654,8185,8192,87.4101,
23,8314,8146,8087,5239,7427,5123,8647,8185,8192,87.4258,
24,8297,8134,8108,5120,7432,5077,8651,8181,8191,87.4416,
25,8265,8174,8123,5111,7444,5099,8653,8182,8194,87.4573,
26,8248,8205,8132,5130,7448,5120,8651,8184,8196,87.4731,
27,8209,8234,8154,5164,7449,5168,8652,8181,8193,87.4889,
28,8194,8220,8175,5147,7451,5187,8658,8180,8198,87.5046,
29,8172,8165,8186,5138,7456,5161,8654,8178,8195,87.5204,
30,8153,8137,8194,5068,7451,5157,8648,8183,8195,87.5361,
31,8121,8084,8203,5045,7450,5171,8645,8182,8192,87.5519,
32,8111,8078,8196,5028,7447,5251,8651,8191,8194,87.5677,
33,8133,8042,8177,5020,7468,5259,8649,8185,8192,87.5834,
34,8141,8045,8168,5023,7472,5255,8645,8183,8191,87.5992,
35,8149,8063,8153,4957,7453,5277,8649,8182,8193,87.6149,
36,8153,8087,8130,4957,7466,5253,8661,8186,8190,87.6307,
37,8153,8094,8117,5018,7464,5275,8654,8196,8190,87.6465,
38,8155,8118,8120,4973,7432,5237,8646,8182,8188,87.6622,
39,8157,8142,8106,5027,7458,5224,8649,8183,8189,87.678,
40,8146,8190,8125,5075,7437,5284,8649,8182,8190,87.6937,
41,8145,8211,8133,5070,7443,5300,8650,8182,8191,87.7095,
42,8121,8185,8161,5113,7425,5290,8649,8181,8191,87.7253,
43,8126,8174,8167,5112,7426,5254,8656,8191,8190,87.741,
44,8106,8141,8176,5115,7434,5248,8653,8189,8191,87.7568,
45,8101,8124,8186,5102,7440,5255,8650,8183,8191,87.7725,
46,8093,8107,8205,5080,7442,5271,8653,8183,8191,87.7883,
47,8092,8096,8202,4994,7428,5279,8655,8185,8190,87.8041,
48,8095,8099,8200,4945,7414,5253,8648,8187,8189,87.8198,
49,8114,8151,8173,4950,7420,5285,8649,8185,8189,87.8356,
50,8126,8157,8152,5022,7427,5312,8654,8183,8189,87.8514,
51,8154,8168,8147,5003,7423,5273,8647,8184,8187,87.8671,
52,8164,8191,8143,5015,7442,5240,8648,8181,8190,87.8829,
53,8174,8220,8140,5050,7447,5273,8652,8182,8188,87.8986,
54,8175,8209,8139,5056,7456,5257,8647,8182,8190,87.9144,
55,8167,8200,8141,5046,7452,5208,8652,8185,8191,87.9302,
56,8160,8202,8136,5038,7457,5216,8650,8186,8194,87.9459,
57,8151,8197,8141,5049,7446,5221,8650,8173,8192,87.9617,
58,8143,8196,8149,5090,7449,5224,8652,8187,8192,87.9774,
59,8140,8199,8147,5088,7431,5255,8652,8189,8195,87.9932,
60,8150,8206,8144,5075,7430,5250,8652,8185,8192,88.009,
61,8157,8192,8143,5097,7441,5255,8657,8185,8193,88.0247,
62,8157,8167,8143,5089,7454,5257,8650,8186,8195,88.0405,
63,8164,8153,8143,5054,7460,5233,8652,8185,8192,88.0562,
0,8169,8139,8143,5024,7451,5223,8660,8183,8193,88.072,
1,8169,8144,8134,5002,7458,5212,8654,8176,8193,88.0878,
2,8170,8169,8107,5016,7449,5239,8646,8184,8190,88.1035,
3,8173,8180,8106,5043,7454,5246,8653,8186,8190,88.1193,
4,8185,8194,8123,5050,7464,5232,8653,8186,8194,88.135,
5,8188,8194,8117,5068,7455,5233,8645,8186,8193,88.1508,
6,8183,8203,8126,5091,7459,5209,8652,8199,8193,88.1666,
7,8179,8202,8130,5114,7461,5204,8645,8184,8191,88.1823,
8,8172,8196,8143,5107,7457,5182,8650,8183,8197,88.1981,
9,8168,8192,8139,5094,7460,5153,8651,8184,8194,88.2138,
10,8159,8186,8147,5078,7471,5150,8646,8183,8196,88.2296,
11,8149,8178,8137,5089,7466,5154,8650,8178,8196,88.2454,
12,8133,8164,8123,5086,7461,5174,8660,8187,8196,88.2611,
13,8115,8164,8136,5083,7458,5176,8651,8185,8197,88.2769,
14,8114,8162,8139,5080,7437,5193,8649,8186,8194,88.2926,
15,8109,8184,8144,5109,7432,5202,8647,8186,8195,88.3084,
16,8114,8185,8139,5132,7422,5227,8649,8184,8194,88.3242,
17,8121,8170,8150,5099,7419,5210,8647,8185,8199,88.3399,
18,8120,8166,8156,5090,7417,5209,8651,8185,8196,88.3557,
19,8127,8162,8144,5091,7425,5215,8649,8185,8198,88.3714,
20,8128,8157,8145,5094,7438,5209,8655,8187,8196,88.3872,
21,8143,8176,8145,5080,7433,5171,8653,8187,8198,88.403,
22,8142,8183,8142,5130,7452,5142,8653,8182,8197,88.4187,
23,8143,8187,8148,5149,7450,5144,8653,8192,8198,88.4345,
24,8138,8185,8164,5141,7466,5150,8649,8183,8199,88.4502,
25,8132,8168,8168,5112,7460,5130,8657,8187,8199,88.466,
26,8121,8174,8176,5097,7472,5133,8648,8181,8200,88.4818,
29,8118,8191,8177,5124,7463,5129,8651,8185,8202,88.529,
30,8111,8186,8169,5133,7458,5146,8644,8184,8202,88.5448,
31,8118,8177,8167,5154,7455,5157,8652,8196,8203,88.5606,
32,8113,8153,8169,5142,7475,5180,8650,8189,8202,88.5763,
33,8114,8141,8182,5127,7459,5176,8655,8188,8203,88.5921,
34,8113,8121,8176,5103,7481,5192,8648,8186,8201,88.6079,
35,8116,8119,8178,5094,7474,5195,8657,8189,8200,88.6236,
36,8119,8125,8187,5076,7471,5168,8651,8179,8198,88.6394,
37,8126,8131,8181,5082,7482,5174,8650,8185,8200,88.6551,
38,8127,8149,8165,5093,7486,5185,8647,8188,8201,88.6709,
39,8117,8148,8167,5102,7486,5201,8649,8185,8201,88.6867,
40,8119,8140,8172,5071,7489,5197,8646,8189,8203,88.7024,
41,8110,8154,8155,5044,7481,5168,8655,8188,8203,88.7182,
42,8103,8171,8152,5075,7485,5159,8651,8188,8200,88.7339,
43,8096,8184,8157,5097,7470,5162,8656,8187,8203,88.7497,
44,8097,8181,8146,5141,7455,5153,8649,8179,8199,88.7655,
45,8090,8179,8159,5157,7445,5164,8649,8187,8202,88.7812,
46,8082,8174,8165,5157,7443,5167,8656,8191,8203,88.797,
47,8090,8161,8165,5147,7444,5178,8652,8188,8202,88.8127,
48,8096,8158,8167,5124,7437,5182,8658,8185,8204,88.8285,
49,8096,8154,8177,5107,7447,5174,8649,8197,8200,88.8443,
50,8108,8156,8165,5110,7448,5174,8653,8189,8202,88.86,
51,8102,8154,8179,5107,7457,5176,8650,8192,8203,88.8758,
52,8120,8157,8163,5106,7460,5194,8650,8188,8204,88.8915,
53,8130,8156,8161,5086,7472,5182,8649,8191,8201,88.9073,
54,8135,8160,8164,5110,7465,5173,8653,8188,8203,88.9231,
55,8134,8157,8162,5102,7472,5178,8652,8190,8203,88.9388,
56,8134,8152,8162,5103,7471,5161,8646,8195,8202,88.9546,
57,8140,8154,8151,5107,7470,5154,8648,8189,8205,88.9703,
58,8134,8155,8146,5118,7466,5151,8654,8198,8201,88.9861,
59,8133,8161,8147,5154,7490,5157,8648,8191,8206,89.0019,
60,8127,8162,8155,5120,7467,5157,8649,8189,8204,89.0176,
61,8123,8160,8155,5134,7457,5157,8654,8186,8204,89.0334,
62,8114,8157,8163,5126,7445,5168,8651,8191,8203,89.0491,
2,8124,8177,8175,5133,7481,5165,8659,8191,8203,89.1122,
3,8124,8173,8179,5122,7478,5155,8649,8192,8205,89.1279,
4,8121,8162,8182,5087,7474,5146,8644,8189,8203,89.1437,
5,8117,8172,8169,5085,7476,5133,8646,8191,8206,89.1595,
6,8119,8183,8168,5119,7476,5156,8651,8189,8206,89.1752,
7,8131,8187,8155,5105,7464,5136,8656,8192,8207,89.191,
8,8134,8187,8155,5140,7474,5127,8649,8192,8205,89.2067,
9,8127,8182,8146,5145,7469,5133,8648,8191,8205,89.2225,
10,8132,8177,8147,5186,7465,5145,8648,8197,8207,89.2383,
11,8136,8150,8154,5158,7467,5131,8651,8192,8211,89.254,
12,8133,8137,8152,5154,7464,5124,8659,8194,8206,89.2698,
13,8139,8141,8151,5149,7475,5110,8654,8189,8208,89.2856,
14,8136,8133,8156,5144,7485,5122,8647,8191,8204,89.3013,
15,8138,8140,8161,5115,7487,5120,8643,8186,8205,89.3171,
16,8129,8138,8169,5117,7481,5117,8647,8196,8205,89.3328,
17,8121,8145,8155,5104,7470,5118,8651,8197,8209,89.3486,
18,8120,8153,8144,5153,7468,5146,8648,8183,8205,89.3644,
19,8121,8147,8151,5148,7472,5119,8645,8191,8206,89.3801,
20,8130,8150,8148,5131,7469,5123,8649,8188,8207,89.3959,
21,8124,8149,8144,5143,7469,5129,8647,8194,8207,89.4116,
22,8109,8147,8162,5138,7465,5129,8645,8194,8205,89.4274,
23,8120,8151,8158,5151,7467,5132,8651,8191,8209,89.4432,
24,8120,8162,8153,5150,7459,5141,8645,8195,8207,89.4589,
25,8115,8159,8166,5142,7459,5140,8645,8191,8206,89.4747,
26,8130,8164,8166,5144,7472,5148,8650,8193,8211,89.4904,
27,8120,8167,8165,5148,7474,5148,8648,8197,8209,89.5062,
28,8124,8156,8166,5137,7474,5156,8650,8190,8206,89.522,
29,8122,8151,8172,5134,7493,5132,8651,8193,8208,89.5377,
30,8128,8160,8170,5135,7492,5127,8654,8190,8208,89.5535,
31,8124,8160,8174,5134,7501,5119,8648,8193,8209,89.5692,
32,8114,8164,8169,5145,7499,5118,8652,8192,8208,89.585,
33,8108,8164,8167,5138,7493,5099,8648,8195,8208,89.6008,
34,8105,8164,8170,5135,7486,5119,8648,8192,8208,89.6165,
35,8102,8168,8167,5132,7486,5128,8651,8191,8209,89.6323,
36,8096,8170,8173,5143,7491,5138,8644,8194,8207,89.648,
37,8109,8167,8169,5133,7480,5126,8645,8192,8207,89.6638,
38,8113,8175,8168,5149,7486,5129,8649,8181,8210,89.6796,
39,8118,8173,8168,5155,7490,5100,8646,8194,8209,89.6953,
40,8121,8176,8157,5144,7482,5107,8648,8202,8209,89.7111,
41,8122,8172,8162,5168,7495,5141,8648,8193,8211,89.7268,
42,8122,8159,8162,5153,7484,5138,8649,8192,8210,89.7426,
43,8124,8151,8162,5142,7495,5131,8648,8193,8210,89.7584,
47,8123,8148,8169,5175,7491,5119,8641,8192,8212,89.8214,
48,8124,8159,8168,5107,7487,5098,8647,8203,8208,89.8372,
49,8124,8174,8164,5143,7491,5117,8649,8195,8209,89.8529,
50,8129,8184,8168,5130,7503,5119,8650,8199,8211,89.8687,
51,8131,8187,8156,5158,7489,5101,8648,8194,8214,89.8844,
52,8128,8184,8150,5170,7486,5096,8648,8194,8212,89.9002,
53,8129,8175,8145,5207,7485,5097,8649,8181,8211,89.916,
54,8131,8169,8145,5219,7476,5106,8648,8197,8212,89.9317,
55,8132,8159,8149,5215,7473,5109,8644,8195,8214,89.9475,
56,8141,8146,8158,5176,7484,5089,8646,8196,8210,89.9632,
57,8135,8141,8169,5168,7495,5080,8650,8196,8212,89.979,
58,8134,8148,8167,5164,7494,5075,8646,8198,8214,89.9948,
59,8139,8156,8170,5150,7497,5072,8645,8196,8214,90.0105,
60,8130,8157,8158,5163,7508,5089,8656,8200,8213,90.0263,
61,8128,8156,8152,5199,7514,5120,8647,8212,8212,90.0421,
62,8119,8149,8163,5157,7504,5108,8645,8195,8211,90.0578,
63,8123,8146,8157,5144,7506,5098,8653,8196,8213,90.0736,
0,8122,8153,8156,5137,7488,5117,8650,8198,8213,90.0893,
1,8116,8158,8148,5146,7481,5128,8644,8195,8213,90.1051,
2,8125,8162,8144,5154,7477,5129,8644,8195,8212,90.1209,
3,8135,8154,8143,5184,7484,5121,8646,8195,8214,90.1366,
4,8142,8161,8144,5182,7483,5106,8641,8197,8212,90.1524,
5,8149,8168,8147,5188,7501,5093,8646,8198,8213,90.1681,
6,8148,8167,8144,5173,7503,5086,8643,8194,8212,90.1839,
7,8142,8165,8161,5180,7518,5061,8646,8197,8212,90.1997,
8,8132,8160,8159,5176,7510,5066,8651,8200,8216,90.2154,
9,8123,8156,8164,5172,7516,5080,8646,8206,8215,90.2312,
10,8121,8160,8157,5180,7507,5094,8644,8199,8211,90.2469,
11,8120,8154,8155,5177,7509,5103,8651,8198,8215,90.2627,
12,8130,8147,8155,5182,7502,5112,8648,8202,8213,90.2785,
13,8128,8141,8165,5169,7495,5108,8645,8197,8213,90.2942,
14,8131,8142,8163,5161,7497,5102,8643,8197,8215,90.31,
15,8131,8144,8157,5173,7490,5111,8647,8197,8214,90.3257,
16,8142,8152,8149,5172,7497,5108,8647,8196,8212,90.3415,
17,8147,8163,8144,5167,7501,5085,8646,8196,8214,90.3573,
18,8145,8169,8153,5155,7504,5084,8647,8198,8214,90.373,
19,8151,8173,8137,5171,7506,5077,8645,8198,8215,90.3888,
20,8144,8167,8137,5194,7505,5108,8646,8198,8213,90.4045,
21,8151,8175,8143,5193,7490,5095,8656,8196,8213,90.4203,
22,8146,8169,8145,5194,7507,5060,8647,8197,8213,90.4361,
23,8143,8175,8150,5208,7512,5069,8644,8197,8216,90.4518,
24,8137,8165,8156,5224,7527,5069,8648,8196,8213,90.4676,
25,8129,8154,8182,5161,7509,5045,8647,8203,8217,90.4833,
26,8130,8155,8176,5151,7520,5041,8637,8198,8214,90.4991,
27,8129,8162,8162,5175,7530,5069,8644,8197,8215,90.5149,
28,8129,8164,8165,5188,7529,5090,8645,8200,8215,90.5306,
29,8133,8165,8162,5177,7523,5086,8644,8201,8215,90.5464,
30,8136,8162,8148,5191,7524,5099,8648,8203,8217,90.5621,
31,8138,8148,8147,5177,7526,5093,8654,8201,8214,90.5779,
32,8149,8152,8136,5169,7526,5095,8652,8202,8216,90.5937,
39,8137,8155,8138,5192,7528,5071,8646,8202,8215,90.704,
40,8130,8144,8148,5203,7532,5081,8646,8200,8216,90.7198,
41,8131,8139,8153,5164,7520,5068,8647,8201,8216,90.7355,
42,8136,8153,8142,5159,7512,5079,8646,8202,8216,90.7513,
43,8137,8160,8138,5173,7507,5097,8642,8200,8219,90.767,
44,8137,8155,8127,5182,7505,5091,8651,8204,8218,90.7828,
45,8142,8168,8121,5191,7497,5081,8647,8200,8216,90.7986,
46,8154,8177,8125,5198,7511,5080,8647,8202,8218,90.8143,
47,8156,8176,8124,5204,7505,5064,8643,8202,8216,90.8301,
48,8151,8172,8132,5210,7509,5065,8646,8196,8216,90.8458,
49,8146,8163,8136,5218,7518,5070,8646,8201,8217,90.8616,
50,8145,8167,8142,5209,7516,5054,8644,8196,8217,90.8774,
63,8141,8156,8132,5211,7504,5050,8643,8197,8219,91.0822,
0,8140,8156,8135,5237,7516,5042,8646,8201,8217,91.098,
1,8130,8151,8130,5244,7516,5030,8642,8198,8219,91.1138,
2,8128,8145,8153,5259,7523,5040,8644,8199,8217,91.1295,
3,8122,8139,8162,5222,7522,5039,8642,8200,8217,91.1453,
4,8122,8148,8152,5184,7505,5045,8644,8180,8219,91.161,
5,8119,8150,8154,5193,7500,5068,8643,8202,8219,91.1768,
6,8124,8154,8157,5191,7514,5072,8645,8198,8218,91.1926,
7,8131,8162,8149,5208,7517,5087,8649,8199,8217,91.2083,
8,8137,8151,8154,5218,7521,5087,8644,8200,8220,91.2241,
9,8138,8144,8147,5208,7511,5081,8644,8200,8219,91.2398,
10,8139,8139,8147,5212,7518,5082,8649,8200,8220,91.2556,
11,8142,8139,8144,5211,7518,5075,8644,8201,8218,91.2714,
12,8147,8143,8145,5184,7513,5055,8646,8198,8216,91.2871,
13,8141,8142,8151,5179,7527,5053,8648,8201,8219,91.3029,
14,8141,8161,8141,5191,7516,5051,8646,8198,8217,91.3186,
15,8140,8162,8140,5201,7519,5061,8649,8197,8219,91.3344,
16,8138,8165,8149,5195,7507,5056,8641,8200,8219,91.3502,
17,8131,8155,8143,5218,7523,5061,8646,8200,8217,91.3659,
18,8130,8163,8141,5225,7532,5080,8644,8204,8218,91.3817,
19,8132,8147,8158,5204,7523,5059,8648,8196,8219,91.3974,
20,8137,8151,8145,5189,7524,5054,8647,8200,8219,91.4132,
21,8133,8154,8138,5185,7512,5051,8647,8199,8219,91.429,
22,8135,8162,8133,5211,7512,5054,8647,8199,8221,91.4447,
23,8130,8154,8132,5229,7513,5048,8655,8203,8218,91.4605,
24,8126,8156,8149,5240,7518,5034,8644,8201,8218,91.4763,
25,8126,8161,8143,5235,7526,5038,8648,8199,8219,91.492,
26,8125,8160,8156,5223,7522,5023,8647,8202,8219,91.5078,
27,8113,8157,8162,5200,7524,5001,8644,8200,8219,91.5235,
28,8106,8160,8161,5175,7523,4994,8647,8201,8220,91.5393,
29,8096,8178,8169,5193,7518,4986,8644,8198,8219,91.5551,
30,8096,8197,8171,5222,7508,5008,8647,8201,8221,91.5708,
31,8086,8198,8174,5254,7506,4984,8639,8195,8220,91.5866,
32,8076,8196,8164,5268,7487,5022,8640,8199,8222,91.6023,
33,8075,8194,8160,5269,7478,5056,8639,8204,8221,91.6181,
34,8090,8181,8158,5268,7501,5044,8641,8195,8223,91.6339,
35,8099,8177,8160,5220,7496,4995,8645,8200,8222,91.6496,
36,8095,8185,8158,5249,7502,4999,8641,8199,8222,91.6654,
37,8099,8193,8169,5259,7503,5038,8643,8206,8223,91.6811,
38,8097,8187,8170,5272,7524,5059,8642,8200,8223,91.6969,
39,8107,8165,8175,5279,7514,5058,8641,8199,8222,91.7127,
40,8106,8141,8183,5212,7529,5052,8643,8199,8221,91.7284,
41,8111,8132,8176,5196,7514,5034,8642,8200,8222,91.7442,
42,8102,8119,8166,5224,7528,5025,8644,8197,8222,91.7599,
43,8098,8114,8159,5213,7522,5038,8645,8204,8222,91.7757,
44,8092,8106,8151,5212,7512,5016,8641,8204,8222,91.7915,
45,8076,8119,8157,5262,7517,5013,8647,8199,8222,91.8072,
46,8067,8130,8167,5251,7502,5053,8647,8200,8223,91.823,
47,8068,8133,8186,5209,7494,5040,8643,8199,8221,91.8387,
48,8062,8139,8195,5179,7473,5028,8640,8199,8221,91.8545,
49,8075,8175,8174,5214,7471,5048,8643,8201,8222,91.8703,
50,8068,8182,8185,5190,7448,5075,8646,8200,8221,91.886,
51,8097,8190,8169,5185,7441,5070,8634,8195,8219,91.9018,
52,8100,8197,8166,5258,7449,5090,8643,8202,8222,91.9175,
53,8121,8205,8181,5290,7472,5137,8643,8200,8223,91.9333,
54,8139,8185,8171,5285,7483,5122,8642,8200,8223,91.9491,
55,8149,8151,8168,5211,7510,5034,8642,8200,8224,91.9648,
56,8156,8160,8157,5225,7525,5053,8645,8205,8224,91.9806,
57,8148,8181,8160,5216,7517,5068,8644,8213,8225,91.9963,
58,8144,8172,8154,5204,7525,5039,8644,8200,8223,92.0121,
59,8141,8180,8159,5194,7511,5044,8648,8205,8227,92.0279,
60,8141,8223,8154,5214,7512,5057,8638,8199,8223,92.0436,
61,8140,8225,8155,5235,7508,5053,8647,8200,8224,92.0594,
62,8133,8209,8158,5277,7508,5026,8642,8202,8226,92.0751,
63,8130,8212,8157,5247,7493,5008,8640,8206,8225,92.0909,
0,8121,8226,8162,5264,7483,5021,8644,8200,8225,92.1067,
1,8123,8226,8165,5279,7490,5014,8642,8201,8227,92.1224,
2,8124,8217,8171,5266,7478,4998,8636,8201,8229,92.1382,
3,8124,8219,8175,5292,7491,4991,8643,8222,8230,92.154,
4,8129,8219,8171,5289,7493,5005,8645,8205,8228,92.1697,
5,8125,8212,8187,5275,7495,5002,8635,8202,8227,92.1855,
6,8129,8201,8181,5248,7504,4990,8646,8204,8230,92.2012,
7,8129,8198,8175,5251,7514,4996,8638,8205,8231,92.217,
8,8128,8202,8172,5268,7511,4968,8638,8204,8231,92.2328,
9,8129,8210,8161,5302,7506,4964,8643,8204,8232,92.2485,
10,8129,8211,8166,5315,7511,4966,8640,8207,8231,92.2643,
11,8130,8210,8175,5290,7512,4956,8641,8208,8232,92.28,
12,8130,8208,8171,5289,7501,4948,8648,8202,8234,92.2958,
13,8131,8212,8156,5300,7499,4952,8645,8207,8232,92.3116,
14,8135,8211,8154,5318,7504,4933,8640,8205,8234,92.3273,
15,8136,8202,8153,5320,7488,4925,8637,8203,8233,92.3431,
16,8142,8206,8153,5348,7505,4907,8642,8203,8236,92.3588,
17,8143,8200,8163,5364,7511,4905,8639,8205,8238,92.3746,
18,8144,8198,8152,5377,7508,4902,8636,8208,8234,92.3904,
19,8151,8180,8146,5368,7518,4890,8640,8202,8236,92.4061,
20,8147,8168,8151,5340,7523,4891,8638,8206,8236,92.4219,
21,8143,8169,8153,5340,7506,4910,8639,8205,8238,92.4376,
25,8142,8163,8146,5331,7520,4864,8639,8210,8235,92.5007,
26,8129,8156,8154,5364,7530,4893,8639,8208,8236,92.5164,
27,8117,8153,8158,5359,7531,4921,8639,8209,8236,92.5322,
28,8108,8157,8183,5320,7512,4922,8635,8207,8234,92.548,
29,8102,8153,8181,5308,7518,4924,8644,8206,8236,92.5637,
30,8098,8162,8170,5318,7516,4934,8634,8205,8234,92.5795,
31,8105,8172,8171,5319,7501,4968,8641,8202,8237,92.5952,
32,8113,8180,8174,5330,7516,4966,8640,8206,8237,92.611,
33,8121,8181,8175,5330,7517,4972,8643,8207,8238,92.6268,
34,8136,8174,8169,5305,7539,4956,8638,8207,8236,92.6425,
35,8142,8170,8162,5306,7526,4946,8643,8208,8236,92.6583,
36,8142,8165,8148,5311,7538,4920,8642,8211,8238,92.674,
37,8134,8157,8147,5341,7541,4911,8641,8207,8237,92.6898,
38,8137,8159,8146,5343,7543,4899,8638,8206,8238,92.7056,
39,8131,8159,8150,5353,7524,4899,8637,8199,8240,92.7213,
40,8124,8155,8164,5357,7538,4898,8636,8207,8237,92.7371,
41,8120,8170,8158,5355,7534,4909,8639,8211,8240,92.7528,
42,8114,8173,8170,5340,7518,4920,8637,8202,8241,92.7686,
43,8112,8182,8178,5370,7531,4925,8647,8205,8237,92.7844,
44,8108,8173,8183,5331,7526,4899,8639,8218,8240,92.8001,
45,8094,8175,8171,5335,7522,4891,8640,8205,8240,92.8159,
46,8092,8179,8172,5350,7531,4888,8642,8212,8241,92.8316,
47,8087,8185,8187,5361,7521,4859,8637,8208,8238,92.8474,
48,8074,8189,8184,5382,7523,4861,8640,8213,8241,92.8632,
49,8057,8198,8192,5416,7507,4871,8635,8207,8242,92.8789,
50,8049,8205,8214,5423,7520,4887,8644,8211,8242,92.8947,
51,8045,8204,8216,5426,7517,4890,8633,8211,8242,92.9105,
52,8048,8185,8229,5385,7517,4894,8640,8213,8241,92.9262,
53,8043,8187,8238,5381,7516,4899,8637,8213,8242,92.942,
54,8042,8177,8234,5365,7518,4897,8637,8210,8242,92.9577,
55,8041,8178,8235,5357,7521,4905,8635,8211,8244,92.9735,
56,8051,8180,8226,5361,7515,4913,8640,8211,8243,92.9893,
57,8055,8179,8225,5363,7521,4925,8640,8211,8245,93.005,
58,8072,8160,8221,5370,7521,4913,8645,8209,8242,93.0208,
59,8075,8145,8219,5335,7517,4909,8639,8211,8244,93.0365,
63,8141,8124,8181,5354,7529,4896,8638,8214,8242,93.0996,
0,8154,8131,8170,5349,7544,4881,8634,8227,8241,93.1153,
1,8158,8140,8169,5353,7550,4877,8634,8215,8244,93.1311,
2,8161,8140,8152,5366,7556,4873,8630,8213,8244,93.1469,
3,8149,8138,8158,5345,7550,4881,8636,8212,8244,93.1626,
4,8151,8138,8148,5346,7540,4874,8640,8219,8244,93.1784,
5,8150,8143,8137,5347,7547,4908,8637,8213,8242,93.1941,
6,8147,8140,8146,5359,7542,4896,8639,8214,8244,93.2099,
7,8139,8131,8143,5346,7538,4890,8642,8217,8243,93.2257,
8,8135,8123,8141,5368,7545,4902,8638,8212,8242,93.2414,
9,8122,8117,8142,5399,7564,4907,8641,8214,8242,93.2572,
10,8123,8111,8154,5346,7537,4893,8639,8212,8241,93.2729,
11,8121,8119,8151,5326,7534,4895,8636,8214,8241,93.2887,
12,8116,8129,8155,5328,7539,4918,8635,8210,8242,93.3045,
13,8120,8140,8142,5335,7521,4910,8640,8215,8241,93.3202,
14,8126,8144,8135,5339,7522,4909,8631,8212,8240,93.336,
15,8124,8147,8136,5373,7517,4925,8637,8229,8241,93.3517,
16,8129,8134,8142,5399,7519,4940,8637,8216,8242,93.3675,
17,8131,8128,8144,5396,7530,4934,8639,8216,8242,93.3833,
18,8135,8116,8149,5355,7520,4926,8637,8212,8240,93.399,
19,8139,8122,8153,5333,7536,4916,8644,8217,8241,93.4148,
20,8132,8133,8156,5311,7515,4926,8643,8216,8240,93.4305,
21,8130,8140,8155,5333,7535,4918,8636,8214,8240,93.4463,
22,8126,8164,8160,5332,7538,4916,8644,8215,8238,93.4621,
23,8124,8172,8161,5350,7532,4935,8640,8228,8242,93.4778,
24,8116,8188,8166,5350,7521,4941,8635,8214,8243,93.4936,
25,8116,8186,8170,5388,7532,4944,8646,8214,8242,93.5093,
26,8115,8177,8172,5358,7529,4909,8637,8216,8241,93.5251,
27,8115,8169,8165,5340,7541,4896,8645,8214,8240,93.5409,
28,8114,8178,8169,5342,7521,4898,8637,8217,8242,93.5566,
29,8105,8172,8169,5351,7518,4900,8640,8215,8244,93.5724,
30,8108,8169,8171,5358,7517,4904,8634,8217,8243,93.5882,
31,8116,8165,8161,5361,7513,4910,8637,8214,8243,93.6039,
32,8117,8157,8166,5352,7515,4904,8636,8218,8244,93.6197,
33,8125,8163,8159,5363,7515,4914,8634,8215,8243,93.6354,
34,8125,8163,8170,5361,7524,4900,8635,8220,8245,93.6512,
35,8128,8172,8161,5357,7529,4879,8639,8215,8242,93.667,
36,8127,8175,8166,5366,7533,4864,8636,8215,8242,93.6827,
37,8117,8186,8168,5369,7541,4856,8632,8214,8244,93.6985,
38,8110,8190,8165,5393,7532,4861,8633,8193,8245,93.7142,
39,8098,8194,8187,5389,7542,4852,8633,8214,8243,93.73,
40,8096,8193,8186,5396,7540,4851,8637,8214,8248,93.7458,
41,8079,8199,8180,5443,7529,4904,8634,8217,8247,93.7615,
42,8087,8190,8196,5411,7522,4914,8637,8216,8242,93.7773,
43,8092,8183,8202,5384,7515,4894,8634,8220,8247,93.793,
44,8095,8187,8194,5385,7524,4906,8638,8216,8245,93.8088,
45,8094,8184,8201,5382,7518,4912,8632,8217,8248,93.8246,
46,8104,8187,8193,5369,7532,4910,8634,8218,8247,93.8403,
47,8120,8188,8184,5374,7518,4897,8637,8221,8249,93.8561,
48,8120,8199,8186,5375,7538,4878,8630,8228,8247,93.8718,
49,8124,8205,8190,5393,7561,4872,8635,8220,8250,93.8876,
50,8124,8214,8195,5409,7558,4881,8630,8221,8250,93.9034,
51,8128,8208,8194,5413,7565,4891,8634,8217,8250,93.9191,
52,8130,8202,8197,5396,7569,4867,8634,8224,8252,93.9349,
53,8127,8202,8194,5407,7566,4822,8630,8221,8253,93.9506,
54,8120,8204,8182,5409,7571,4822,8630,8217,8252,93.9664,
55,8122,8194,8181,5431,7590,4825,8632,8217,8255,93.9822,
56,8116,8193,8196,5399,7577,4795,8638,8242,8252,93.9979,
57,8105,8211,8197,5420,7586,4785,8624,8222,8254,94.0137,
58,8094,8215,8191,5408,7576,4806,8635,8223,8253,94.0294,
59,8092,8215,8187,5434,7560,4829,8633,8220,8254,94.0452,
60,8095,8216,8187,5443,7566,4842,8638,8222,8255,94.061,
61,8104,8200,8182,5465,7567,4846,8633,8219,8256,94.0767,
62,8108,8185,8169,5451,7559,4830,8626,8221,8257,94.0925,
63,8115,8179,8167,5454,7555,4843,8627,8220,8256,94.1082,
0,8117,8174,8161,5428,7549,4833,8632,8221,8256,94.124,
1,8127,8173,8159,5419,7545,4811,8630,8220,8254,94.1398,
2,8139,8176,8150,5444,7555,4819,8634,8223,8254,94.1555,
3,8136,8176,8150,5475,7560,4802,8636,8225,8257,94.1713,
4,8140,8178,8144,5483,7562,4805,8633,8227,8258,94.187,
5,8143,8173,8147,5494,7570,4810,8631,8222,8255,94.2028,
6,8143,8157,8144,5488,7566,4799,8638,8220,8259,94.2186,
7,8147,8156,8144,5493,7575,4816,8632,8222,8256,94.2343,
8,8147,8143,8158,5421,7568,4790,8626,8224,8257,94.2501,
9,8149,8144,8147,5408,7552,4786,8625,8217,8256,94.2658,
10,8143,8147,8136,5448,7548,4823,8630,8223,8254,94.2816,
11,8144,8147,8136,5443,7547,4829,8630,8223,8257,94.2974,
12,8158,8139,8124,5472,7548,4820,8631,8236,8255,94.3131,
13,8165,8141,8123,5450,7548,4793,8632,8219,8254,94.3289,
14,8175,8142,8136,5454,7540,4803,8627,8223,8257,94.3447,
15,8173,8139,8127,5467,7546,4811,8634,8219,8256,94.3604,
16,8181,8107,8127,5455,7546,4813,8635,8226,8256,94.3762,
17,8195,8093,8126,5458,7561,4804,8630,8224,8256,94.3919,
18,8200,8075,8131,5456,7577,4785,8633,8220,8252,94.4077,
19,8197,8080,8126,5450,7575,4790,8633,8223,8255,94.4235,
20,8196,8084,8135,5444,7573,4811,8630,8225,8253,94.4392,
21,8200,8089,8135,5441,7585,4814,8634,8228,8253,94.455,
22,8200,8092,8133,5441,7588,4845,8631,8210,8251,94.4707,
23,8194,8092,8145,5428,7596,4833,8636,8225,8251,94.4865,
24,8191,8090,8142,5450,7612,4840,8634,8232,8254,94.5023,
25,8176,8089,8153,5412,7630,4849,8630,8222,8250,94.518,
26,8171,8082,8153,5406,7623,4830,8639,8227,8250,94.5338,
27,8155,8078,8162,5347,7615,4788,8635,8228,8251,94.5495,
28,8150,8102,8159,5409,7621,4828,8632,8226,8249,94.5653,
29,8132,8100,8155,5408,7615,4854,8639,8223,8250,94.5811,
30,8127,8085,8152,5412,7613,4866,8637,8211,8248,94.5968,
31,8123,8087,8151,5316,7595,4843,8629,8221,8245,94.6126,
32,8125,8093,8148,5364,7603,4847,8639,8219,8248,94.6283,
33,8135,8155,8132,5320,7592,4861,8637,8223,8249,94.6441,
34,8147,8204,8127,5369,7607,4838,8632,8223,8246,94.6599,
35,8144,8201,8125,5392,7599,4883,8633,8220,8250,94.6756,
36,8156,8213,8128,5369,7600,4862,8633,8230,8249,94.6914,
37,8155,8222,8127,5359,7608,4851,8637,8228,8249,94.7071,
38,8155,8233,8117,5469,7610,4904,8634,8221,8250,94.7229,
39,8153,8204,8113,5500,7613,4872,8625,8221,8252,94.7387,
40,8153,8121,8114,5470,7594,4791,8631,8224,8248,94.7544,
41,8147,8099,8113,5445,7592,4814,8634,8220,8249,94.7702,
42,8132,8059,8121,5438,7594,4830,8633,8226,8247,94.7859,
43,8124,8044,8119,5398,7596,4854,8634,8221,8247,94.8017,
44,8124,8031,8123,5377,7595,4863,8639,8221,8246,94.8175,
45,8126,8034,8122,5359,7570,4852,8638,8222,8247,94.8332,
46,8120,8058,8118,5347,7571,4875,8635,8221,8246,94.849,
47,8121,8097,8125,5368,7583,4894,8633,8220,8245,94.8647,
11,8142,8182,8170,5415,7599,4844,8636,8222,8250,14.0988,
12,8146,8174,8155,5422,7610,4848,8639,8221,8249,14.1854,
13,8136,8160,8156,5395,7597,4827,8633,8218,8251,14.2012,
15,8137,8166,8152,5413,7606,4813,8633,8225,8250,14.2327,
16,8138,8172,8154,5372,7576,4801,8634,8221,8251,14.2485,
17,8135,8183,8137,5445,7573,4810,8629,8219,8253,14.2642,
27,8129,8129,8142,5411,7604,4844,8633,8227,8250,14.4218,
28,8142,8132,8131,5419,7597,4853,8635,8223,8252,14.4376,
29,8133,8128,8136,5424,7601,4836,8634,8226,8253,14.4534,
30,8144,8144,8125,5442,7599,4856,8637,8224,8249,14.4691,
31,8144,8147,8130,5421,7603,4846,8634,8223,8250,14.4849,
32,8140,8145,8144,5416,7606,4838,8626,8222,8247,14.5007,
33,8148,8159,8133,5418,7590,4840,8632,8225,8250,14.5164,
34,8144,8154,8136,5410,7589,4857,8639,8224,8251,14.5322,
35,8145,8142,8139,5409,7586,4858,8638,8227,8253,14.5479,
36,8143,8147,8147,5400,7594,4846,8634,8221,8253,14.5637,
37,8151,8159,8138,5426,7605,4842,8631,8223,8248,14.5795,
38,8140,8153,8132,5413,7594,4826,8633,8222,8252,14.5952,
39,8138,8143,8139,5453,7612,4848,8633,8220,8253,14.611,
40,8128,8131,8149,5431,7596,4849,8631,8221,8248,14.6267,
41,8132,8129,8156,5382,7597,4842,8632,8221,8250,14.6425,
42,8131,8140,8149,5389,7578,4849,8637,8222,8250,14.6583,
43,8134,8152,8139,5399,7578,4856,8633,8223,8249,14.674,
44,8139,8153,8134,5417,7582,4853,8634,8227,8251,14.6898,
45,8146,8164,8126,5424,7588,4847,8639,8223,8253,14.7055,
46,8152,8166,8130,5445,7584,4840,8633,8218,8253,14.7213,
47,8156,8155,8137,5441,7584,4847,8629,8220,8249,14.7371,
9,8135,8114,8135,5353,7568,4903,8636,8219,8245,16.1118,
10,8138,8139,8141,5345,7565,4904,8640,8216,8244,16.1827,
11,8138,8142,8136,5363,7564,4892,8636,8218,8243,16.1984,
12,8136,8147,8146,5387,7568,4895,8635,8218,8244,16.2142,
14,8138,8157,8147,5392,7566,4896,8637,8221,8245,16.2457,
15,8131,8157,8156,5390,7571,4902,8638,8214,8244,16.2615,
25,8141,8200,8169,5383,7601,4873,8639,8224,8247,16.4191,
26,8136,8196,8170,5393,7616,4869,8641,8224,8248,16.4348,
27,8139,8197,8168,5390,7606,4874,8632,8221,8248,16.4506,
28,8135,8194,8168,5394,7604,4866,8632,8216,8248,16.4664,
29,8127,8195,8161,5375,7612,4864,8633,8223,8249,16.4821,
30,8124,8197,8164,5383,7613,4862,8630,8217,8248,16.4979,
31,8131,8204,8160,5389,7598,4850,8632,8219,8251,16.5137,
32,8134,8213,8158,5405,7600,4860,8633,8221,8251,16.5294,
33,8132,8209,8147,5411,7578,4872,8640,8226,8250,16.5452,
34,8132,8208,8149,5411,7567,4848,8634,8223,8250,16.5609,
35,8148,8219,8136,5432,7582,4869,8633,8219,8252,16.5767,
36,8148,8210,8144,5422,7581,4875,8638,8222,8251,16.5925,
37,8159,8218,8142,5390,7577,4852,8634,8219,8252,16.6082,
38,8157,8233,8136,5407,7593,4830,8630,8223,8256,16.624,
39,8159,8245,8130,5482,7601,4841,8631,8238,8256,16.6397,
40,8163,8232,8164,5463,7614,4817,8632,8222,8254,16.6555,
41,8155,8219,8175,5438,7628,4786,8627,8221,8253,16.6713,
42,8154,8223,8179,5414,7622,4768,8628,8216,8255,16.687,
43,8143,8218,8168,5436,7641,4769,8633,8224,8255,16.7028,
44,8131,8213,8167,5452,7625,4791,8633,8227,8253,16.7185,
45,8129,8204,8164,5473,7618,4802,8632,8221,8254,16.7343,
46,8124,8203,8163,5485,7616,4820,8630,8219,8256,16.7501,
47,8124,8199,8165,5491,7595,4823,8627,8219,8255,16.7658,
48,8139,8191,8159,5470,7591,4820,8633,8229,8255,16.7816,
49,8140,8188,8160,5457,7600,4802,8633,8227,8258,16.7973,
53,8155,8205,8161,5470,7630,4773,8634,8225,8255,16.8604,
54,8157,8211,8159,5480,7638,4768,8634,8228,8260,16.8761,
55,8154,8200,8157,5506,7645,4765,8630,8225,8257,16.8919,
56,8148,8192,8151,5501,7651,4760,8627,8222,8258,16.9077,
57,8139,8173,8154,5466,7656,4747,8630,8227,8261,16.9234,
58,8139,8177,8158,5457,7632,4762,8636,8226,8259,16.9392,
59,8132,8177,8147,5464,7633,4760,8641,8223,8262,16.9549,
60,8142,8186,8140,5485,7628,4764,8632,8227,8259,16.9707,
61,8140,8188,8132,5503,7617,4781,8629,8225,8260,16.9865,
62,8145,8187,8132,5533,7614,4744,8627,8217,8260,17.0022,
63,8151,8179,8137,5534,7616,4732,8626,8222,8262,17.018,
0,8156,8175,8140,5527,7626,4725,8623,8221,8258,17.0337,
1,8157,8174,8134,5538,7651,4730,8631,8225,8263,17.0495,
2,8149,8166,8150,5537,7652,4734,8636,8223,8263,17.0653,
3,8143,8160,8147,5524,7639,4748,8630,8222,8260,17.081,
4,8144,8153,8154,5491,7646,4761,8630,8225,8261,17.0968,
5,8140,8150,8154,5472,7647,4754,8630,8230,8261,17.1125,
6,8139,8150,8149,5483,7653,4775,8629,8223,8262,17.1283,
7,8142,8157,8139,5483,7646,4784,8623,8222,8261,17.1441,
8,8153,8170,8136,5493,7631,4784,8627,8225,8261,17.1598,
9,8153,8170,8135,5496,7639,4773,8630,8224,8263,17.1756,
10,8147,8175,8137,5498,7647,4774,8624,8223,8261,17.1914,
11,8159,8181,8131,5516,7634,4774,8627,8222,8262,17.2071,
12,8164,8184,8133,5506,7625,4780,8637,8221,8260,17.2229,
13,8163,8177,8132,5512,7640,4755,8630,8205,8263,17.2386,
14,8157,8161,8120,5511,7635,4748,8632,8225,8262,17.2544,
15,8161,8167,8124,5506,7631,4744,8637,8226,8262,17.2702,
16,8161,8167,8114,5546,7640,4742,8637,8231,8263,17.2859,
17,8152,8162,8122,5539,7651,4747,8629,8225,8262,17.3017,
18,8152,8162,8141,5556,7652,4734,8628,8237,8262,17.3174,
19,8140,8148,8165,5500,7651,4721,8630,8226,8264,17.3332,
20,8134,8146,8169,5510,7655,4717,8625,8224,8260,17.349,
21,8133,8152,8161,5502,7643,4725,8629,8226,8262,17.3647,
22,8131,8153,8158,5520,7642,4755,8639,8223,8262,17.3805,
23,8134,8144,8155,5517,7650,4759,8635,8224,8262,17.3962,
24,8139,8138,8149,5543,7643,4779,8630,8225,8262,17.412,
25,8144,8119,8147,5523,7650,4781,8632,8228,8263,17.4278,
26,8143,8112,8149,5484,7657,4771,8630,8232,8262,17.4435,
27,8157,8120,8139,5452,7671,4753,8625,8224,8261,17.4593,
28,8157,8128,8138,5444,7669,4753,8627,8222,8260,17.475,
29,8149,8136,8137,5466,7669,4751,8630,8227,8261,17.4908,
30,8145,8147,8121,5478,7654,4756,8628,8226,8261,17.5066,
31,8148,8156,8126,5515,7665,4768,8628,8223,8262,17.5223,
32,8141,8155,8130,5506,7659,4756,8633,8229,8262,17.5381,
33,8143,8157,8120,5520,7666,4763,8635,8224,8260,17.5538,
34,8130,8140,8129,5529,7645,4784,8631,8223,8259,17.5696,
35,8133,8139,8133,5502,7631,4771,8623,8223,8261,17.5854,
36,8132,8139,8134,5486,7624,4762,8629,8224,8258,17.6011,
37,8127,8145,8125,5496,7625,4773,8635,8227,8261,17.6169,
38,8135,8144,8139,5497,7616,4764,8635,8227,8261,17.6326,
39,8139,8154,8132,5536,7613,4774,8630,8223,8262,17.6484,
40,8142,8164,8137,5551,7626,4774,8625,8222,8262,17.6642,
41,8138,8154,8145,5536,7624,4772,8629,8214,8261,17.6799,
42,8150,8165,8148,5508,7649,4769,8629,8226,8261,17.6957,
43,8139,8145,8160,5501,7650,4751,8636,8220,8261,17.7114,
44,8142,8148,8154,5491,7653,4754,8629,8221,8261,17.7272,
45,8131,8140,8161,5485,7654,4769,8633,8226,8261,17.743,
46,8131,8135,8156,5486,7652,4767,8631,8216,8260,17.7587,
47,8137,8137,8158,5487,7649,4776,8630,8224,8260,17.7745,
48,8135,8140,8153,5501,7655,4772,8628,8225,8260,17.7902,
49,8141,8144,8149,5487,7657,4773,8631,8228,8262,17.806,
50,8142,8143,8151,5484,7648,4754,8635,8223,8262,17.8218,
51,8139,8143,8136,5482,7638,4766,8630,8224,8260,17.8375,
52,8137,8144,8133,5497,7654,4778,8627,8223,8260,17.8533,
53,8141,8152,8135,5494,7658,4773,8628,8226,8264,17.869,
54,8141,8155,8138,5488,7651,4766,8629,8230,8259,17.8848,
55,8143,8154,8127,5491,7649,4772,8630,8226,8260,17.9006,
56,8146,8152,8126,5487,7643,4786,8629,8239,8262,17.9163,
57,8145,8157,8118,5481,7634,4761,8628,8225,8260,17.9321,
58,8144,8162,8118,5508,7643,4752,8634,8231,8261,17.9479,
59,8146,8163,8112,5525,7651,4764,8628,8228,8264,17.9636,
60,8140,8157,8134,5537,7644,4760,8628,8230,8260,17.9794,
61,8137,8150,8149,5501,7633,4745,8634,8227,8261,17.9951,
62,8131,8151,8147,5486,7629,4738,8632,8221,8262,18.0109,
63,8131,8156,8146,5506,7640,4747,8628,8224,8263,18.0267,
0,8128,8163,8146,5500,7630,4757,8633,8221,8260,18.0424,
1,8132,8159,8138,5521,7642,4768,8627,8227,8262,18.0582,
2,8140,8152,8138,5527,7634,4773,8637,8223,8261,18.0739,
3,8146,8152,8139,5522,7632,4776,8629,8223,8262,18.0897,
4,8146,8136,8147,5512,7639,4773,8632,8227,8262,18.1055,
5,8155,8135,8141,5496,7635,4759,8633,8219,8263,18.1212,
6,8148,8137,8134,5494,7645,4752,8628,8226,8262,18.137,
7,8140,8134,8135,5497,7641,4733,8630,8223,8262,18.1527,
8,8139,8128,8145,5487,7640,4735,8631,8228,8262,18.1685,
9,8136,8144,8143,5503,7645,4738,8627,8222,8259,18.1843,
10,8139,8152,8146,5499,7649,4779,8631,8226,8260,18.2,
11,8138,8151,8141,5512,7643,4791,8629,8222,8259,18.2158,
12,8129,8142,8142,5504,7637,4806,8623,8222,8261,18.2315,
13,8124,8130,8154,5481,7623,4804,8628,8224,8260,18.2473,
16,8133,8152,8137,5466,7618,4775,8632,8227,8261,18.2946,
17,8150,8184,8137,5497,7629,4782,8633,8232,8261,18.3103,
18,8146,8173,8138,5524,7626,4774,8629,8227,8260,18.3261,
19,8154,8174,8126,5528,7629,4759,8630,8223,8262,18.3419,
20,8150,8172,8131,5535,7646,4735,8629,8217,8261,18.3576,
21,8155,8170,8145,5526,7647,4734,8628,8225,8262,18.3734,
22,8141,8155,8151,5532,7647,4735,8634,8228,8262,18.3891,
23,8138,8140,8155,5518,7646,4735,8628,8224,8259,18.4049,
24,8134,8145,8149,5513,7651,4729,8626,8220,8261,18.4207,
25,8129,8138,8153,5514,7653,4753,8627,8229,8261,18.4364,
26,8126,8131,8166,5484,7647,4758,8627,8225,8260,18.4522,
27,8129,8134,8164,5481,7645,4767,8628,8222,8258,18.4679,
28,8123,8128,8154,5476,7646,4773,8631,8224,8261,18.4837,
29,8131,8133,8150,5480,7639,4776,8639,8223,8261,18.4995,
30,8136,8143,8138,5490,7654,4784,8628,8218,8260,18.5152,
31,8134,8142,8145,5510,7649,4792,8632,8224,8259,18.531,
32,8144,8154,8132,5502,7650,4785,8628,8224,8262,18.5467,
33,8145,8154,8134,5488,7644,4758,8634,8206,8260,18.5625,
34,8145,8156,8125,5490,7637,4774,8625,8220,8259,18.5783,
35,8143,8138,8134,5488,7635,4785,8630,8205,8261,18.594,
36,8147,8147,8138,5495,7623,4774,8631,8224,8262,18.6098,
37,8150,8160,8122,5511,7638,4760,8638,8228,8262,18.6256,
38,8151,8158,8133,5528,7643,4750,8631,8233,8258,18.6413,
39,8145,8152,8145,5543,7642,4746,8630,8225,8260,18.6571,
40,8136,8142,8155,5522,7639,4766,8630,8227,8262,18.6728,
41,8129,8134,8169,5478,7636,4763,8630,8226,8259,18.6886,
42,8131,8138,8166,5472,7640,4751,8626,8223,8260,18.7044,
43,8136,8158,8155,5471,7654,4761,8627,8224,8259,18.7201,
44,8141,8168,8146,5501,7644,4757,8634,8229,8262,18.7359,
45,8139,8164,8134,5502,7649,4762,8633,8221,8261,18.7516,
46,8141,8157,8135,5498,7649,4779,8627,8226,8262,18.7674,
47,8143,8143,8135,5495,7643,4776,8630,8222,8262,18.7832,
48,8140,8133,8137,5500,7647,4769,8629,8223,8263,18.7989,
49,8147,8140,8139,5503,7645,4766,8629,8222,8259,18.8147,
50,8143,8142,8140,5494,7647,4753,8623,8224,8260,18.8304,
51,8141,8145,8139,5483,7642,4749,8629,8223,8260,18.8462,
52,8135,8148,8151,5488,7652,4752,8638,8224,8260,18.862,
53,8137,8154,8147,5500,7657,4783,8627,8222,8261,18.8777,
54,8134,8146,8145,5506,7642,4785,8634,8224,8261,18.8935,
55,8143,8151,8149,5497,7644,4792,8634,8220,8259,18.9092,
56,8134,8127,8147,5500,7645,4792,8628,8223,8262,18.925,
57,8135,8131,8151,5489,7660,4770,8638,8226,8263,18.9408,
58,8145,8154,8138,5459,7638,4759,8630,8223,8260,18.9565,
59,8148,8161,8132,5499,7626,4772,8627,8227,8260,18.9723,
60,8147,8161,8132,5506,7630,4767,8633,8229,8264,18.988,
61,8150,8151,8135,5530,7631,4763,8630,8224,8260,19.0038,
62,8152,8152,8134,5526,7634,4763,8628,8224,8260,19.0196,
63,8147,8146,8146,5515,7651,4753,8630,8242,8258,19.0353,
0,8149,8149,8143,5503,7650,4759,8631,8222,8259,19.0511,
1,8145,8138,8150,5498,7655,4761,8629,8229,8260,19.0668,
2,8146,8142,8149,5503,7668,4768,8628,8223,8262,19.0826,
3,8131,8132,8158,5492,7660,4796,8624,8224,8262,19.0984,
4,8142,8143,8161,5447,7668,4768,8631,8233,8263,19.1141,
5,8140,8161,8146,5456,7643,4771,8631,8222,8262,19.1299,
6,8132,8171,8139,5470,7648,4793,8626,8221,8261,19.1456,
7,8138,8165,8149,5471,7645,4786,8630,8220,8261,19.1614,
8,8140,8160,8143,5478,7644,4780,8628,8225,8260,19.1772,
9,8138,8160,8134,5496,7643,4805,8627,8223,8262,19.1929,
10,8151,8166,8127,5467,7640,4756,8632,8224,8264,19.2087,
11,8149,8143,8132,5487,7660,4756,8633,8226,8261,19.2244,
12,8141,8130,8140,5507,7641,4750,8628,8223,8260,19.2402,
13,8135,8110,8148,5487,7661,4672,8623,8222,8261,19.256,
14,8116,8144,8148,5505,7656,4703,8630,8227,8259,19.2717,
15,8110,8163,8146,5523,7630,4729,8630,8219,8260,19.2875,
16,8103,8175,8149,5498,7642,4767,8623,8224,8259,19.3032,
19,8135,8150,8141,5466,7629,4835,8633,8219,8265,19.3505,
20,8140,8131,8144,5489,7653,4722,8628,8223,8260,19.3663,
21,8136,8146,8138,5527,7665,4716,8630,8228,8261,19.3821,
22,8126,8165,8141,5543,7648,4820,8632,8217,8261,19.3978,
23,8127,8139,8158,5481,7631,4732,8628,8221,8262,19.4136,
24,8127,8116,8168,5448,7625,4696,8630,8225,8259,19.4293,
25,8126,8136,8159,5498,7631,4764,8628,8224,8262,19.4451,
26,8136,8160,8137,5522,7632,4770,8634,8220,8260,19.4609,
27,8141,8119,8142,5512,7633,4791,8629,8224,8261,19.4766,
28,8146,8124,8142,5519,7633,4771,8631,8226,8264,19.4924,
29,8143,8110,8143,5525,7641,4758,8635,8228,8260,19.5081,
30,8140,8104,8141,5482,7643,4724,8628,8224,8258,19.5239,
31,8130,8113,8145,5488,7627,4743,8626,8224,8259,19.5397,
32,8133,8122,8148,5516,7622,4798,8628,8221,8260,19.5554,
33,8136,8112,8157,5509,7620,4773,8634,8219,8260,19.5712,
34,8144,8125,8161,5500,7638,4780,8623,8221,8255,19.5869,
35,8139,8121,8164,5489,7636,4768,8630,8221,8257,19.6027,
36,8130,8120,8161,5473,7643,4786,8642,8226,8261,19.6185,
37,8135,8121,8156,5484,7651,4814,8631,8227,8260,19.6342,
38,8132,8121,8151,5470,7654,4828,8631,8227,8257,19.65,
39,8142,8135,8152,5451,7667,4807,8636,8229,8258,19.6657,
40,8141,8162,8145,5404,7654,4787,8633,8225,8258,19.6815,
41,8134,8169,8142,5404,7658,4779,8626,8220,8260,19.6973,
42,8143,8210,8139,5474,7648,4813,8629,8222,8258,19.713,
43,8140,8204,8140,5493,7648,4832,8632,8224,8261,19.7288,
44,8132,8147,8137,5516,7644,4782,8625,8222,8260,19.7445,
45,8140,8154,8141,5479,7622,4737,8630,8222,8258,19.7603,
46,8140,8171,8136,5487,7638,4744,8644,8224,8259,19.7761,
47,8144,8181,8142,5524,7649,4768,8630,8234,8260,19.7918,
48,8142,8168,8145,5507,7653,4750,8632,8224,8260,19.8076,
49,8143,8165,8153,5484,7664,4765,8634,8228,8259,19.8233,
50,8141,8149,8141,5503,7667,4774,8630,8223,8260,19.8391,
51,8147,8147,8140,5476,7660,4756,8632,8225,8260,19.8549,
52,8145,8153,8136,5470,7655,4772,8632,8221,8262,19.8706,
53,8140,8156,8131,5501,7652,4798,8628,8225,8259,19.8864,
54,8139,8156,8135,5491,7644,4799,8635,8226,8259,19.9021,
55,8143,8145,8137,5498,7652,4762,8633,8223,8258,19.9179,
56,8146,8157,8139,5503,7653,4755,8627,8220,8260,19.9337,
57,8138,8148,8144,5504,7637,4773,8628,8226,8260,19.9494,
58,8133,8141,8145,5511,7649,4782,8631,8229,8259,19.9652,
59,8131,8140,8145,5509,7635,4777,8623,8224,8257,19.9809,
60,8130,8141,8150,5515,7636,4764,8627,8224,8262,19.9967,
61,8135,8147,8158,5503,7634,4751,8634,8223,8259,20.0125,
62,8130,8155,8165,5478,7642,4761,8634,8222,8259,20.0282,
63,8136,8163,8158,5498,7655,4765,8629,8224,8261,20.044,
0,8131,8159,8158,5498,7656,4766,8634,8224,8261,20.0598,
1,8137,8163,8152,5483,7650,4769,8629,8217,8259,20.0755,
2,8133,8155,8154,5458,7665,4790,8634,8228,8260,20.0913,
3,8131,8132,8147,5470,7664,4775,8635,8222,8260,20.107,
4,8133,8140,8129,5452,7642,4772,8632,8225,8261,20.1228,
5,8132,8152,8131,5474,7648,4769,8637,8226,8260,20.1386,
6,8134,8167,8136,5519,7655,4770,8632,8219,8260,20.1543,
7,8126,8165,8132,5541,7646,4769,8628,8227,8263,20.1701,
8,8130,8157,8143,5546,7663,4778,8633,8226,8263,20.1858,
9,8133,8150,8153,5508,7639,4755,8630,8225,8261,20.2016,
10,8129,8126,8165,5487,7640,4742,8630,8226,8260,20.2174,
11,8126,8135,8162,5473,7637,4746,8633,8225,8261,20.2331,
12,8129,8153,8146,5492,7636,4784,8630,8224,8261,20.2489,
13,8129,8156,8144,5510,7636,4794,8636,8226,8263,20.2646,
14,8139,8156,8148,5511,7633,4793,8632,8224,8261,20.2804,
15,8142,8144,8148,5494,7623,4801,8629,8227,8263,20.2962,
16,8151,8143,8134,5491,7620,4794,8633,8222,8261,20.3119,
17,8153,8148,8136,5493,7617,4781,8636,8224,8262,20.3277,
18,8154,8156,8132,5504,7610,4768,8639,8225,8262,20.3434,
19,8157,8171,8133,5517,7637,4770,8632,8226,8259,20.3592,
20,8156,8177,8145,5522,7639,4765,8638,8222,8260,20.375,
21,8154,8186,8165,5493,7642,4804,8629,8224,8260,20.3907,
22,8153,8200,8165,5502,7660,4704,8632,8228,8260,20.4065,
23,8146,8224,8162,5558,7676,4706,8629,8224,8263,20.4222,
24,8138,8205,8167,5433,7637,4826,8630,8225,8262,20.438,
25,8148,8192,8148,5470,7636,4764,8626,8223,8264,20.4538,
26,8154,8190,8139,5482,7655,4667,8629,8239,8263,20.4695,
27,8149,8187,8130,5552,7662,4689,8628,8222,8262,20.4853,
28,8146,8178,8128,5522,7656,4710,8630,8229,8263,20.501,
29,8158,8164,8134,5503,7661,4720,8629,8221,8263,20.5168,
30,8153,8154,8128,5513,7679,4694,8626,8227,8264,20.5326,
31,8151,8149,8124,5508,7681,4722,8631,8223,8261,20.5483,
32,8140,8134,8125,5541,7697,4747,8629,8226,8264,20.5641,
33,8147,8135,8135,5552,7695,4729,8638,8223,8264,20.5798,
34,8137,8109,8149,5515,7699,4807,8632,8224,8262,20.5956,
35,8142,8104,8151,5468,7694,4764,8633,8227,8263,20.6114,
36,8129,8111,8143,5465,7686,4780,8627,8226,8261,20.6271,
37,8131,8123,8134,5500,7668,4778,8629,8225,8261,20.6429,
38,8142,8139,8132,5484,7667,4795,8636,8229,8265,20.6586,
39,8138,8134,8133,5481,7657,4760,8630,8202,8258,20.6744,
40,8134,8139,8118,5517,7631,4764,8630,8232,8262,20.6902,
41,8137,8138,8125,5531,7628,4762,8630,8235,8258,20.7059,
42,8137,8143,8118,5547,7627,4764,8632,8220,8263,20.7217,
43,8134,8138,8133,5506,7616,4754,8623,8221,8261,20.7374,
44,8132,8147,8135,5555,7616,4745,8629,8232,8261,20.7532,
45,8133,8132,8142,5559,7606,4749,8625,8217,8261,20.769,
46,8134,8124,8146,5512,7599,4752,8635,8229,8261,20.7847,
47,8139,8132,8158,5551,7635,4745,8633,8222,8262,20.8005,
48,8144,8137,8161,5539,7627,4748,8634,8224,8259,20.8163,
52,8122,8127,8166,5476,7668,4758,8632,8225,8261,20.8793,
53,8118,8125,8172,5452,7669,4752,8623,8222,8260,20.8951,
54,8113,8119,8159,5462,7656,4798,8629,8226,8259,20.9108,
55,8120,8115,8159,5445,7634,4806,8625,8227,8258,20.9266,
56,8123,8121,8152,5458,7629,4809,8634,8224,8259,20.9423,
57,8130,8132,8143,5457,7617,4790,8628,8225,8259,20.9581,
58,8138,8134,8132,5481,7636,4781,8632,8225,8260,20.9739,
59,8140,8135,8131,5521,7644,4808,8628,8223,8257,20.9896,
60,8145,8145,8147,5473,7647,4743,8635,8225,8260,21.0054,
61,8137,8133,8152,5465,7648,4774,8638,8220,8259,21.0211,
62,8137,8148,8146,5453,7647,4760,8634,8221,8257,21.0369,
63,8137,8152,8137,5453,7643,4765,8634,8223,8258,21.0527,
0,8134,8165,8130,5480,7657,4764,8628,8221,8261,21.0684,
1,8128,8157,8137,5512,7646,4777,8632,8224,8260,21.0842,
2,8134,8146,8123,5493,7634,4798,8627,8220,8258,21.0999,
3,8136,8141,8133,5486,7632,4798,8627,8224,8260,21.1157,
4,8139,8140,8124,5504,7628,4800,8634,8218,8257,21.1315,
5,8140,8143,8127,5498,7614,4787,8631,8220,8258,21.1472,
6,8143,8138,8131,5475,7634,4796,8632,8221,8260,21.163,
7,8142,8140,8130,5488,7632,4770,8621,8217,8257,21.1787,
8,8143,8155,8138,5489,7644,4774,8631,8224,8259,21.1945,
9,8145,8151,8146,5492,7636,4788,8637,8223,8261,21.2103,
10,8140,8146,8143,5485,7647,4802,8632,8224,8259,21.226,
11,8135,8133,8147,5498,7654,4782,8631,8222,8260,21.2418,
12,8128,8129,8151,5476,7652,4803,8639,8223,8259,21.2575,
13,8135,8140,8149,5445,7638,4775,8629,8222,8259,21.2733,
14,8129,8146,8140,5469,7631,4778,8634,8225,8257,21.2891,
15,8133,8150,8141,5474,7636,4799,8634,8221,8260,21.3048,
16,8136,8155,8147,5485,7618,4785,8629,8220,8258,21.3206,
17,8145,8169,8136,5501,7625,4770,8637,8221,8258,21.3363,
18,8142,8164,8141,5490,7640,4778,8629,8217,8258,21.3521,
19,8147,8170,8141,5485,7640,4771,8641,8222,8257,21.3679,
20,8144,8167,8136,5491,7632,4763,8627,8233,8260,21.3836,
21,8139,8163,8138,5492,7651,4760,8632,8219,8259,21.3994,
22,8136,8159,8147,5464,7642,4734,8625,8222,8257,21.4151,
23,8134,8158,8135,5504,7655,4787,8631,8221,8261,21.4309,
24,8130,8153,8139,5497,7651,4766,8625,8226,8258,21.4467,
25,8132,8149,8143,5486,7636,4776,8634,8201,8259,21.4624,
26,8130,8145,8136,5513,7647,4763,8628,8223,8260,21.4782,
27,8133,8141,8140,5503,7649,4787,8634,8226,8261,21.494,
28,8134,8132,8153,5474,7638,4788,8632,8223,8261,21.5097,
29,8136,8141,8149,5469,7633,4777,8633,8221,8260,21.5255,
30,8139,8148,8140,5486,7636,4774,8628,8219,8260,21.5412,
31,8138,8149,8137,5491,7631,4777,8628,8218,8259,21.557,
32,8140,8152,8137,5487,7627,4780,8634,8220,8262,21.5728,
33,8143,8152,8136,5502,7636,4767,8630,8233,8259,21.5885,
34,8143,8159,8141,5492,7624,4763,8638,8222,8257,21.6043,
35,8136,8156,8123,5527,7625,4783,8629,8218,8259,21.62,
36,8132,8143,8138,5511,7632,4756,8629,8221,8259,21.6358,
37,8138,8145,8140,5495,7635,4752,8633,8219,8260,21.6516,
38,8137,8148,8146,5488,7639,4765,8631,8220,8259,21.6673,
39,8131,8140,8143,5490,7625,4793,8632,8225,8259,21.6831,
40,8137,8138,8149,5474,7635,4771,8638,8223,8259,21.6988,
41,8129,8147,8140,5480,7619,4751,8632,8220,8258,21.7146,
42,8129,8153,8126,5515,7625,4777,8634,8225,8259,21.7304,
43,8130,8138,8144,5524,7642,4798,8629,8223,8258,21.7461,
44,8131,8137,8157,5491,7624,4751,8631,8222,8261,21.7619,
45,8125,8142,8161,5475,7631,4755,8637,8222,8261,21.7776,
46,8122,8149,8159,5476,7619,4757,8633,8220,8259,21.7934,
47,8131,8159,8152,5478,7627,4775,8637,8226,8258,21.8092,
48,8126,8160,8150,5484,7624,4787,8629,8220,8261,21.8249,
49,8134,8161,8137,5534,7631,4775,8629,8222,8261,21.8407,
50,8137,8159,8135,5523,7635,4798,8632,8224,8260,21.8564,
51,8132,8140,8147,5501,7643,4784,8634,8220,8260,21.8722,
52,8138,8144,8151,5496,7627,4784,8624,8219,8260,21.888,
53,8142,8152,8151,5463,7631,4776,8629,8221,8262,21.9037,
54,8140,8154,8135,5476,7631,4755,8631,8220,8259,21.9195,
55,8137,8155,8133,5489,7636,4766,8624,8218,8260,21.9352,
56,8135,8157,8137,5520,7632,4765,8629,8221,8261,21.951,
57,8139,8163,8134,5505,7623,4769,8624,8219,8260,21.9668,
58,8131,8154,8133,5516,7634,4769,8634,8215,8260,21.9825,
59,8136,8151,8130,5539,7632,4786,8627,8223,8261,21.9983,
60,8138,8140,8146,5490,7617,4767,8626,8225,8261,22.014,
61,8136,8139,8144,5472,7610,4748,8631,8221,8262,22.0298,
62,8138,8154,8135,5486,7617,4767,8629,8221,8259,22.0456,
63,8138,8153,8126,5504,7603,4770,8633,8222,8258,22.0613,
0,8149,8159,8126,5521,7620,4756,8630,8222,8260,22.0771,
1,8145,8150,8131,5541,7612,4754,8639,8223,8260,22.0928,
2,8143,8146,8144,5527,7605,4752,8631,8224,8261,22.1086,
3,8138,8133,8150,5525,7622,4744,8636,8223,8260,22.1244,
4,8137,8127,8153,5507,7628,4763,8630,8227,8260,22.1401,
5,8137,8125,8167,5485,7628,4770,8629,8219,8262,22.1559,
6,8131,8128,8161,5487,7629,4769,8636,8220,8262,22.1717,
7,8131,8127,8163,5494,7637,4770,8628,8224,8259,22.1874,
8,8128,8130,8163,5478,7626,4778,8640,8228,8261,22.2032,
9,8134,8139,8162,5482,7625,4794,8630,8221,8259,22.2189,
10,8130,8137,8161,5488,7632,4783,8629,8225,8259,22.2347,
11,8127,8143,8160,5467,7638,4790,8628,8220,8260,22.2505,
12,8128,8141,8150,5467,7634,4809,8629,8230,8260,22.2662,
13,8141,8159,8140,5478,7637,4747,8639,8220,8260,22.282,
14,8145,8168,8136,5485,7644,4783,8625,8223,8258,22.2977,
15,8138,8158,8139,5478,7629,4771,8630,8225,8259,22.3135,
16,8134,8159,8145,5503,7627,4766,8629,8218,8260,22.3293,
17,8138,8157,8147,5521,7627,4791,8628,8228,8262,22.345,
18,8147,8163,8142,5487,7615,4763,8629,8220,8261,22.3608,
19,8148,8161,8140,5501,7632,4769,8631,8220,8259,22.3765,
20,8148,8149,8136,5486,7633,4754,8630,8223,8260,22.3923,
21,8147,8148,8133,5496,7629,4774,8627,8220,8258,22.4081,
22,8146,8142,8140,5491,7618,4763,8632,8223,8262,22.4238,
23,8146,8149,8136,5511,7636,4721,8630,8219,8261,22.4396,
24,8141,8150,8141,5507,7638,4732,8625,8220,8260,22.4553,
25,8133,8139,8145,5521,7638,4774,8631,8218,8261,22.4711,
26,8131,8127,8167,5487,7633,4736,8623,8218,8262,22.4869,
27,8126,8131,8165,5467,7631,4730,8633,8223,8260,22.5026,
28,8127,8139,8150,5494,7627,4779,8625,8219,8261,22.5184,
29,8128,8141,8148,5478,7638,4781,8631,8224,8261,22.5341,
30,8127,8143,8151,5509,7628,4783,8633,8224,8258,22.5499,
31,8128,8134,8153,5531,7625,4791,8633,8227,8259,22.5657,
32,8135,8123,8152,5508,7648,4791,8630,8223,8258,22.5814,
33,8137,8116,8150,5485,7628,4786,8635,8228,8259,22.5972,
34,8138,8110,8153,5469,7630,4771,8626,8220,8261,22.6129,
35,8130,8119,8158,5471,7635,4757,8631,8220,8259,22.6287,
36,8137,8134,8148,5469,7630,4758,8625,8224,8259,22.6445,
37,8129,8137,8156,5518,7647,4741,8629,8202,8258,22.6602,
38,8127,8139,8164,5529,7634,4752,8632,8223,8260,22.676,
39,8116,8139,8181,5511,7621,4758,8634,8229,8258,22.6917,
40,8116,8141,8177,5555,7647,4757,8628,8222,8259,22.7075,
3,9801,8102,7531,5137,7589,5211,8624,8264,8239,24.1268,
4,9715,8060,7556,5198,7644,5179,8621,8264,8234,24.1504,
6,9560,7998,7633,5152,7703,5047,8627,8266,8229,24.1819,
7,9504,8021,7659,5170,7715,5033,8624,8263,8224,24.1977,
8,9399,8051,7724,5177,7752,4981,8628,8263,8226,24.2134,
9,9266,8015,7780,5179,7767,4971,8633,8262,8221,24.2292,
19,8411,8139,8039,5052,7797,5109,8644,8268,8205,24.3868,
20,8379,8120,8048,5041,7793,5125,8629,8283,8208,24.4026,
21,8348,8107,8064,5013,7791,5116,8632,8284,8203,24.4183,
22,8297,8113,8064,5008,7775,5196,8637,8263,8208,24.4341,
23,8286,8108,8062,5019,7769,5217,8644,8266,8206,24.4498,
24,8262,8110,8063,4965,7740,5253,8640,8248,8201,24.4656,
25,8252,8124,8056,4990,7743,5245,8636,8261,8206,24.4814,
26,8245,8149,8062,5002,7727,5287,8635,8265,8206,24.4971,
27,8246,8160,8071,5030,7753,5304,8635,8257,8205,24.5129,
28,8251,8150,8080,4983,7739,5261,8636,8258,8203,24.5287,
29,8244,8143,8074,4998,7742,5244,8637,8262,8203,24.5444,
30,8222,8144,8083,4944,7721,5238,8643,8257,8202,24.5602,
31,8211,8150,8075,4994,7726,5221,8633,8255,8203,24.5759,
32,8196,8167,8067,4996,7693,5294,8634,8260,8202,24.5917,
33,8197,8163,8058,5026,7693,5283,8638,8255,8203,24.6075,
34,8199,8161,8063,5028,7690,5263,8637,8263,8202,24.6232,
35,8202,8169,8083,5045,7707,5265,8641,8257,8203,24.639,
36,8205,8177,8092,5057,7693,5257,8634,8253,8201,24.6547,
37,8196,8188,8112,5016,7701,5266,8639,8258,8204,24.6705,
38,8202,8187,8114,5029,7702,5252,8636,8254,8203,24.6863,
3,8164,8189,8128,5152,7724,5014,8638,8247,8225,26.1079,
4,8165,8196,8129,5172,7729,5079,2615,9906,8226,26.1236,
5,8166,8200,8132,5192,7751,5014,8635,8242,8225,26.1394,
13,8393,8246,8112,4866,7562,5516,8664,8173,8162,26.2655,
6,8163,8197,8129,5198,7726,5064,8644,8246,8229,26.1552,
5,8166,8200,8132,5192,7751,5014,8635,8242,8225,27.1481,
6,8163,8197,8129,5198,7726,5064,8644,8246,8229,27.1638,
16,8163,8183,8131,5229,7718,5074,8639,8245,8225,27.3214,
17,8163,8183,8131,5228,7723,5061,8637,8240,8227,27.3372,
18,8160,8156,8136,5224,7717,5037,8639,8245,8224,27.353,
19,8161,8157,8130,5207,7730,5030,8639,8231,8227,27.3687,
20,8153,8148,8128,5207,7726,5025,8638,8243,8229,27.3845,
21,8150,8140,8137,5211,7737,5024,8642,8245,8225,27.4002,
22,8141,8118,8145,5196,7751,5028,8639,8239,8224,27.416,
23,8135,8121,8143,5195,7728,5041,8638,8248,8224,27.4318,
24,8131,8121,8163,5175,7725,5060,8638,8249,8223,27.4475,
25,8132,8123,8159,5153,7723,5068,8640,8241,8226,27.4633,
26,8129,8125,8137,5136,7707,5067,8643,8243,8225,27.479,
27,8141,8147,8134,5159,7702,5080,8634,8242,8224,27.4948,
28,8143,8148,8133,5161,7708,5091,8644,8244,8225,27.5106,
29,8156,8159,8120,5169,7708,5081,8636,8241,8224,27.5263,
30,8159,8164,8112,5180,7710,5096,8639,8245,8224,27.5421,
31,8167,8161,8116,5180,7716,5078,8629,8243,8226,27.5578,
32,8175,8167,8110,5189,7723,5059,8641,8242,8225,27.5736,
33,8164,8169,8107,5187,7719,5059,8647,8239,8226,27.5894,
34,8159,8162,8120,5168,7718,5092,8638,8253,8224,27.6051,
35,8168,8155,8105,5178,7718,5060,8638,8243,8225,27.6209,
42,8148,8208,8114,5260,7689,5046,8637,8247,8227,27.7312,
43,8151,8203,8126,5184,7698,5078,8643,8239,8225,27.747,
44,8159,8210,8123,5186,7702,5011,8647,8239,8224,27.7627,
45,8159,8211,8122,5216,7694,5113,8638,8241,8225,27.7785,
46,8176,8210,8129,5165,7692,5097,8637,8243,8227,27.7942,
47,8177,8207,8107,5218,7698,5032,8639,8239,8227,27.81,
48,8186,8175,8112,5191,7703,5049,8643,8239,8226,27.8258,
49,8175,8181,8111,5171,7719,5090,8646,8240,8227,27.8415,
50,8187,8210,8115,5188,7715,5052,8640,8237,8225,27.8573,
51,8187,8217,8127,5183,7722,5024,8638,8238,8226,27.873,
52,8185,8229,8116,5260,7721,5076,8635,8238,8228,27.8888,
53,8185,8225,8124,5226,7732,5012,8636,8239,8226,27.9046,
54,8185,8212,8126,5236,7725,5005,8633,8237,8228,27.9203,
55,8182,8210,8109,5207,7721,5054,8635,8242,8229,27.9361,
56,8178,8204,8105,5242,7721,5045,8647,8235,8229,27.9519,
57,8168,8210,8111,5215,7734,4985,8637,8238,8230,27.9676,
58,8163,8219,8111,5213,7705,4993,8636,8242,8228,27.9834,
59,8170,8214,8122,5245,7724,4959,8641,8240,8231,27.9991,
60,8160,8218,8120,5245,7707,4984,8637,8241,8230,28.0149,
61,8169,8218,8123,5264,7708,4993,8636,8238,8231,28.0307,
62,8167,8220,8122,5257,7709,4978,8637,8246,8231,28.0464,
63,8157,8204,8126,5280,7730,4961,8637,8238,8231,28.0622,
0,8166,8197,8135,5268,7726,4942,8635,8240,8232,28.0779,
1,8155,8176,8133,5244,7723,4998,8638,8239,8232,28.0937,
2,8162,8181,8135,5269,7730,4930,8631,8237,8232,28.1095,
3,8152,8175,8136,5257,7731,5027,8639,8237,8234,28.1252,
4,8151,8171,8132,5266,7730,4947,8638,8236,8231,28.141,
7,8146,8160,8128,5236,7724,5019,8633,8237,8232,28.1883,
8,8151,8165,8123,5235,7738,4952,8635,8237,8233,28.204,
9,8139,8153,8127,5243,7693,5035,8636,8239,8230,28.2198,
10,8155,8166,8117,5235,7726,4972,8638,8238,8232,28.2355,
11,8142,8165,8120,5276,7706,5026,8634,8237,8231,28.2513,
12,8148,8164,8127,5259,7718,4981,8630,8237,8233,28.2671,
13,8145,8157,8122,5290,7704,5020,8634,8236,8234,28.2828,
14,8155,8169,8131,5220,7720,4962,8640,8240,8235,28.2986,
15,8148,8167,8127,5318,7710,5007,8641,8232,8235,28.3143,
16,8150,8173,8145,5292,7732,4955,8635,8238,8233,28.3301,
17,8145,8158,8149,5243,7711,5028,8643,8236,8231,28.3459,
18,8147,8153,8145,5231,7716,4961,8634,8241,8234,28.3616,
19,8154,8176,8140,5241,7725,5012,8637,8233,8233,28.3774,
20,8150,8171,8137,5272,7736,4980,8633,8236,8231,28.3931,
21,8140,8160,8131,5322,7745,4984,8633,8228,8235,28.4089,
22,8134,8142,8143,5217,7730,4994,8637,8238,8232,28.4247,
23,8135,8145,8164,5272,7739,4903,8640,8234,8233,28.4404,
24,8123,8147,8166,5253,7717,5002,8639,8237,8233,28.4562,
25,8125,8147,8160,5203,7711,4981,8638,8236,8232,28.4719,
26,8133,8159,8146,5224,7718,4978,8635,8238,8233,28.4877,
27,8134,8168,8137,5323,7727,5050,8642,8236,8236,28.5035,
28,8140,8159,8145,5228,7707,4967,8631,8235,8235,28.5192,
29,8142,8148,8127,5311,7726,4998,8633,8240,8233,28.535,
30,8151,8147,8128,5275,7727,4999,8645,8239,8236,28.5507,
31,8149,8131,8140,5244,7722,5008,8633,8236,8233,28.5665,
32,8146,8138,8145,5274,7731,4971,8640,8239,8232,28.5823,
33,8139,8137,8136,5277,7731,5026,8633,8238,8234,28.598,
34,8138,8138,8159,5245,7728,4955,8639,8235,8234,28.6138,
35,8132,8141,8157,5262,7725,4958,8642,8239,8232,28.6296,
36,8127,8143,8145,5293,7722,5068,8637,8240,8233,28.6453,
37,8137,8130,8150,5185,7727,4945,8643,8237,8232,28.6611,
38,8130,8134,8135,5227,7724,4951,8629,8235,8232,28.6768,
39,8128,8138,8128,5299,7743,5045,8639,8239,8233,28.6926,
40,8152,8117,8158,5261,7733,5008,8630,8237,8231,28.7084,
41,8149,8125,8152,5195,7724,4948,8637,8236,8232,28.7241,
42,8126,8139,8138,5274,7718,4997,8636,8240,8234,28.7399,
43,8135,8136,8140,5286,7717,5033,8635,8238,8233,28.7556,
44,8154,8138,8144,5285,7709,5042,8638,8239,8230,28.7714,
45,8168,8131,8146,5278,7737,5026,8635,8237,8229,28.7872,
46,8161,8137,8153,5226,7753,4998,8637,8254,8232,28.8029,
47,8151,8153,8147,5222,7749,5002,8635,8234,8234,28.8187,
48,8148,8163,8143,5251,7771,5034,8638,8237,8230,28.8344,
49,8146,8148,8145,5195,7784,5015,8638,8239,8233,28.8502,
50,8149,8153,8141,5183,7781,5011,8633,8238,8230,28.866,
51,8151,8160,8136,5175,7785,5044,8637,8237,8230,28.8817,
52,8151,8150,8136,5203,7811,5063,8639,8238,8230,28.8975,
53,8158,8142,8143,5200,7850,5048,8636,8242,8233,28.9132,
54,8163,8147,8136,5184,7866,4991,8635,8239,8232,28.929,
55,8175,8176,8144,5167,7865,4996,8635,8236,8233,28.9448,
56,8180,8181,8136,5120,7875,4983,8641,8251,8230,28.9605,
57,8183,8136,8091,5086,7852,4954,8640,8242,8231,28.9763,
58,8182,8128,8069,5082,7858,4956,8643,8239,8234,28.992,
59,8175,8139,8018,5149,7840,4979,8635,8237,8231,29.0078,
60,8170,8149,7996,5185,7809,4978,8643,8242,8230,29.0236,
61,8156,8151,7987,5216,7796,4992,8641,8238,8231,29.0393,
62,8145,8146,7990,5251,7785,5021,8638,8236,8231,29.0551,
63,8138,8129,7994,5257,7780,5023,8647,8232,8230,29.0708,
0,8125,8091,8001,5231,7771,5005,8637,8238,8229,29.0866,
1,8114,8075,8006,5173,7740,4990,8646,8230,8231,29.1024,
2,8081,8055,7992,5171,7718,4988,8633,8228,8228,29.1181,
3,8076,8070,7993,5184,7684,5037,8639,8225,8230,29.1339,
4,8077,8098,7986,5198,7665,5045,8643,8227,8227,29.1496,
5,8076,8094,7982,5186,7631,5060,8639,8235,8226,29.1654,
6,8075,8068,7959,5236,7605,5084,8653,8221,8226,29.1812,
7,8077,8043,7952,5229,7596,5071,8638,8221,8225,29.1969,
8,8069,8018,7950,5190,7595,5100,8645,8219,8224,29.2127,
9,8064,8025,7950,5167,7562,5106,8645,8218,8225,29.2284,
10,8067,8042,7936,5184,7514,5070,8643,8214,8222,29.2442,
11,8083,8068,7927,5219,7465,5067,8644,8210,8224,29.26,
12,8082,8086,7929,5227,7433,5089,8639,8208,8220,29.2757,
13,8107,8091,7932,5240,7407,5092,8644,8209,8221,29.2915,
14,8109,8088,7939,5230,7395,5088,8639,8210,8217,29.3072,
15,8122,8110,7939,5262,7365,5053,8644,8206,8222,29.323,
16,8125,8125,7950,5283,7342,5069,8644,8204,8219,29.3388,
17,8145,8159,7978,5270,7336,5061,8644,8205,8221,29.3545,
18,8144,8170,7986,5280,7329,5027,8645,8200,8221,29.3703,
19,8157,8204,8010,5272,7321,5020,8645,8200,8220,29.3861,
20,8159,8215,8025,5307,7318,5017,8644,8200,8222,29.4018,
21,8155,8219,8061,5267,7295,5033,8648,8205,8222,29.4176,
22,8161,8232,8065,5240,7301,5024,8646,8203,8223,29.4333,
23,8164,8241,8071,5277,7315,5048,8646,8199,8221,29.4491,
24,8172,8251,8079,5268,7310,5048,8638,8198,8222,29.4649,
25,8173,8256,8082,5296,7307,5047,8645,8197,8225,29.4806,
26,8174,8267,8101,5282,7322,5002,8646,8194,8223,29.4964,
27,8171,8271,8107,5293,7317,4999,8641,8195,8226,29.5121,
28,8157,8276,8120,5313,7340,5020,8643,8197,8226,29.5279,
29,8163,8277,8123,5305,7337,5012,8646,8203,8227,29.5437,
30,8153,8268,8133,5316,7355,5006,8646,8197,8228,29.5594,
31,8149,8255,8139,5311,7366,4996,8640,8200,8228,29.5752,
32,8145,8235,8140,5285,7366,4994,8640,8196,8227,29.5909,
33,8136,8209,8141,5278,7374,4982,8643,8199,8229,29.6067,
34,8136,8207,8143,5259,7369,4994,8650,8199,8231,29.6225,
35,8131,8201,8144,5253,7368,4988,8644,8197,8230,29.6382,
36,8124,8189,8143,5276,7377,4982,8646,8197,8232,29.654,
37,8121,8182,8136,5270,7362,4988,8650,8197,8230,29.6697,
38,8125,8153,8133,5274,7353,5021,8641,8191,8230,29.6855,
39,8119,8152,8136,5246,7338,5006,8646,8202,8232,29.7013,
40,8123,8168,8136,5304,7351,4968,8645,8202,8231,29.717,
41,8122,8199,8152,5284,7327,5003,8641,8197,8232,29.7328,
42,8131,8196,8151,5332,7324,5016,8639,8199,8232,29.7485,
43,8143,8162,8135,5320,7332,5030,8642,8206,8231,29.7643,
44,8145,8130,8144,5269,7342,5012,8644,8195,8232,29.7801,
45,8159,8146,8131,5226,7349,4976,8639,8195,8230,29.7958,
46,8156,8178,8127,5193,7355,4945,8644,8196,8231,29.8116,
47,8156,8237,8122,5172,7347,4927,8649,8201,8231,29.8273,
48,8150,8265,8112,5257,7360,4958,8644,8213,8235,29.8431,
49,8143,8313,8106,5391,7355,5046,8637,8199,8234,29.8589,
50,8141,8309,8111,5405,7346,5058,8642,8198,8235,29.8746,
51,8156,8270,8136,5373,7344,5039,8644,8197,8239,29.8904,
52,8154,8249,8135,5345,7317,5045,8648,8197,8238,29.9061,
53,8166,8228,8134,5396,7336,5016,8644,8195,8238,29.9219,
54,8165,8179,8132,5395,7343,4992,8641,8199,8239,29.9377,
55,8170,8180,8129,5387,7358,4945,8642,8201,8238,29.9534,
56,8167,8163,8141,5391,7386,4901,8643,8197,8237,29.9692,
57,8163,8152,8151,5423,7407,4923,8635,8195,8239,29.9849,
58,8157,8131,8186,5337,7409,4901,8641,8192,8236,30.0007,
59,8143,8123,8189,5324,7424,4877,8645,8199,8238,30.0165,
60,8122,8128,8190,5288,7418,4898,8645,8201,8240,30.0322,
61,8124,8142,8172,5296,7413,4944,8641,8200,8236,30.048,
62,8118,8154,8154,5316,7410,4942,8645,8196,8239,30.0638,
63,8119,8154,8151,5291,7382,4971,8642,8195,8238,30.0795,
0,8121,8143,8135,5297,7359,4980,8643,8205,8239,30.0953,
1,8131,8147,8137,5332,7376,4990,8648,8201,8237,30.111,
2,8150,8155,8123,5340,7393,4987,8643,8199,8237,30.1268,
3,8153,8148,8133,5330,7378,4980,8646,8200,8239,30.1426,
4,8164,8159,8129,5268,7364,4970,8645,8176,8238,30.1583,
5,8176,8173,8119,5311,7365,4991,8642,8196,8235,30.1741,
6,8181,8166,8120,5340,7378,4974,8651,8199,8240,30.1898,
7,8193,8150,8123,5384,7382,4983,8644,8196,8236,30.2056,
10,8200,8103,8118,5292,7412,4919,8644,8196,8239,30.2529,
11,8200,8127,8121,5250,7421,4924,8650,8199,8236,30.2686,
12,8219,8144,8119,5235,7477,4921,8640,8197,8236,30.2844,
13,8228,8174,8108,5225,7504,4889,8641,8201,8237,30.3002,
14,8232,8152,8100,5234,7512,4887,8643,8194,8237,30.3159,
15,8228,8121,8072,5195,7534,4901,8644,8196,8238,30.3317,
16,8228,8129,8051,5199,7535,4872,8643,8195,8237,30.3474,
17,8217,8148,8010,5260,7530,4832,8648,8181,8236,30.3632,
18,8207,8186,7964,5303,7500,4885,8637,8193,8238,30.379,
19,8207,8162,7954,5361,7491,4962,8640,8213,8239,30.3947,
20,8216,8091,7926,5394,7461,4942,8644,8191,8237,30.4105,
21,8220,8072,7914,5406,7451,4968,8642,8187,8235,30.4262,
22,8220,8046,7911,5315,7374,4931,8643,8179,8235,30.442,
23,8218,8049,7906,5297,7343,4914,8640,8183,8233,30.4578,
24,8216,8118,7911,5284,7333,4886,8642,8185,8236,30.4735,
25,8208,8181,7917,5327,7304,4917,8642,8184,8233,30.4893,
26,8192,8282,7939,5388,7311,4970,8639,8182,8234,30.505,
27,8177,8296,7967,5549,7313,5077,8642,8176,8238,30.5208,
28,8181,8237,8023,5539,7303,4993,8647,8179,8239,30.5366,
29,8177,8203,8052,5478,7285,4957,8635,8180,8238,30.5523,
30,8162,8144,8086,5432,7304,4987,8649,8178,8234,30.5681,
31,8162,8117,8114,5365,7295,4963,8641,8177,8236,30.5838,
32,8160,8124,8103,5370,7300,4971,8645,8175,8236,30.5996,
33,8158,8134,8128,5351,7320,4975,8640,8179,8236,30.6154,
34,8163,8144,8123,5387,7338,5009,8651,8181,8236,30.6311,
35,8182,8138,8138,5330,7346,5002,8644,8181,8234,30.6469,
36,8184,8137,8137,5346,7385,5023,8653,8179,8237,30.6626,
37,8193,8155,8157,5289,7394,5056,8644,8180,8236,30.6784,
38,8207,8154,8151,5249,7411,5021,8648,8177,8238,30.6942,
39,8213,8183,8140,5221,7410,5047,8637,8179,8238,30.7099,
40,8206,8193,8129,5229,7402,5052,8642,8181,8235,30.7257,
41,8216,8192,8101,5200,7389,5031,8638,8177,8238,30.7414,
42,8230,8197,8076,5274,7391,5035,8643,8180,8240,30.7572,
43,8246,8207,8063,5218,7342,4948,8643,8180,8238,30.773,
44,8251,8233,8024,5241,7349,4927,8651,8177,8240,30.7887,
45,8251,8265,7998,5314,7326,4871,8645,8174,8238,30.8045,
46,8234,8328,7980,5382,7306,4848,8648,8171,8242,30.8203,
47,8223,8342,7986,5455,7295,4822,8641,8175,8243,30.836,
48,8199,8356,7996,5565,7277,4804,8639,8170,8244,30.8518,
49,8184,8353,8014,5600,7275,4806,8638,8177,8245,30.8675,
50,8167,8295,8049,5645,7264,4778,8644,8173,8247,30.8833,
51,8160,8264,8062,5646,7253,4773,8649,8172,8245,30.8991,
52,8144,8176,8085,5541,7237,4789,8645,8189,8245,30.9148,
53,8140,8147,8087,5488,7204,4829,8641,8170,8246,30.9306,
54,8142,8149,8080,5541,7203,4864,8634,8170,8245,30.9463,
55,8154,8154,8089,5547,7196,4953,8640,8173,8246,30.9621,
56,8182,8096,8115,5515,7172,4977,8640,8175,8246,30.9779,
57,8197,8073,8112,5483,7195,4988,8644,8171,8244,30.9936,
58,8229,8056,8118,5401,7192,4997,8641,8174,8243,31.0094,
59,8255,8056,8121,5377,7191,4988,8641,8169,8242,31.0251,
60,8269,8076,8115,5339,7219,4970,8640,8171,8244,31.0409,
61,8283,8113,8099,5392,7240,4952,8635,8170,8242,31.0567,
62,8292,8124,8106,5456,7273,4896,8638,8173,8244,31.0724,
63,8288,8134,8130,5470,7316,4843,8640,8171,8247,31.0882,
0,8278,8138,8143,5468,7322,4805,8647,8177,8245,31.1039,
1,8240,8150,8166,5474,7363,4740,8642,8236,8244,31.1197,
2,8229,8155,8177,5501,7361,4722,8647,8175,8244,31.1355,
3,8172,8154,8192,5506,7366,4680,8639,8174,8247,31.1512,
4,8144,8125,8193,5490,7382,4659,8637,8173,8243,31.167,
5,8102,8097,8237,5465,7383,4666,8644,8181,8245,31.1827,
6,8080,8093,8251,5450,7394,4659,8645,8184,8241,31.1985,
7,8043,8103,8268,5442,7392,4675,8644,8184,8243,31.2143,
8,8008,8102,8291,5440,7379,4742,8647,8178,8244,31.23,
9,7993,8104,8300,5390,7379,4758,8644,8178,8241,31.2458,
10,7967,8109,8315,5391,7357,4761,8643,8176,8243,31.2615,
11,7964,8117,8323,5405,7350,4835,8638,8170,8239,31.2773,
12,7962,8103,8325,5422,7358,4851,8649,8181,8242,31.2931,
13,7966,8095,8335,5451,7358,4884,8634,8180,8238,31.3088,
14,7979,8066,8350,5414,7368,4952,8642,8181,8243,31.3246,
15,7986,8045,8352,5412,7392,4958,8638,8179,8240,31.3403,
16,8001,8034,8375,5372,7407,4993,8642,8171,8237,31.3561,
17,8005,8031,8378,5344,7422,5020,8644,8184,8235,31.3719,
18,8017,8017,8381,5294,7424,5017,8644,8191,8238,31.3876,
19,8017,8016,8378,5287,7442,5009,8640,8188,8238,31.4034,
22,8038,8033,8358,5222,7463,5001,8644,8193,8235,31.4507,
23,8040,8052,8341,5242,7474,4994,8651,8193,8234,31.4664,
24,8042,8060,8331,5246,7497,4998,8644,8194,8231,31.4822,
25,8047,8069,8319,5257,7487,4989,8653,8199,8231,31.498,
26,8051,8073,8316,5267,7494,4983,8646,8197,8233,31.5137,
27,8062,8094,8325,5237,7506,4979,8649,8198,8231,31.5295,
28,8065,8106,8326,5260,7514,4980,8636,8197,8229,31.5452,
29,8064,8121,8315,5261,7511,5023,8642,8198,8230,31.561,
30,8073,8115,8312,5239,7532,5031,8640,8199,8229,31.5768,
31,8083,8106,8291,5218,7514,5018,8644,8203,8230,31.5925,
32,8079,8104,8277,5185,7526,5008,8643,8201,8229,31.6083,
33,8082,8103,8246,5199,7544,5009,8647,8205,8229,31.624,
34,8090,8109,8226,5194,7534,5006,8643,8202,8229,31.6398,
35,8086,8122,8206,5203,7542,5013,8648,8209,8228,31.6556,
36,8093,8146,8181,5217,7543,5017,8643,8208,8227,31.6713,
37,8106,8154,8173,5226,7539,5027,8644,8203,8230,31.6871,
38,8118,8158,8145,5185,7520,5032,8640,8202,8229,31.7028,
39,8126,8164,8126,5160,7496,5012,8641,8203,8231,31.7186,
40,8140,8172,8096,5185,7487,5012,8647,8201,8230,31.7344,
41,8149,8171,8080,5253,7486,5022,8648,8205,8231,31.7501,
42,8173,8165,8064,5246,7454,4995,8644,8204,8230,31.7659,
43,8175,8155,8057,5256,7456,4982,8645,8206,8230,31.7816,
44,8184,8153,8042,5257,7433,4973,8644,8199,8229,31.7974,
45,8188,8153,8038,5256,7427,4969,8647,8200,8228,31.8132,
46,8174,8151,8044,5291,7409,4967,8643,8197,8229,31.8289,
47,8173,8155,8041,5330,7385,4972,8644,8197,8228,31.8447,
48,8175,8159,8048,5345,7375,4991,8638,8196,8228,31.8604,
49,8172,8153,8046,5342,7377,5005,8644,8202,8231,31.8762,
50,8164,8139,8070,5349,7389,4978,8652,8197,8229,31.892,
51,8160,8130,8100,5358,7396,4950,8648,8174,8227,31.9077,
52,8155,8124,8128,5331,7405,4950,8646,8199,8230,31.9235,
53,8153,8118,8160,5319,7405,4954,8645,8198,8228,31.9392,
54,8152,8124,8178,5280,7418,4979,8645,8200,8226,31.955,
55,8147,8122,8184,5235,7431,4981,8645,8196,8227,31.9708,
56,8149,8126,8188,5207,7434,4977,8646,8197,8228,31.9865,
57,8135,8133,8191,5224,7463,5036,8648,8196,8229,32.0023,
58,8142,8151,8188,5220,7458,5036,8650,8203,8228,32.018,
59,8148,8157,8184,5079,7460,4972,8643,8204,8226,32.0338,
60,8141,8169,8170,4963,7436,4908,8640,8197,8227,32.0496,
61,8138,8229,8157,4933,7403,4891,8645,8195,8228,32.0653,
62,8142,8266,8137,5166,7361,4925,8643,8196,8229,32.0811,
63,8155,8325,8118,5285,7357,4980,8645,8203,8230,32.0968,
0,8203,8276,8112,5409,7331,5069,8646,8197,8230,32.1126,
1,8234,8210,8114,5456,7394,5065,8643,8198,8230,32.1284,
2,8293,8117,8126,5465,7429,5076,8644,8202,8230,32.1441,
3,8312,8068,8135,5441,7486,5063,8643,8199,8230,32.1599,
4,8330,7960,8114,5370,7492,5047,8641,8197,8228,32.1757,
5,8334,7923,8108,5226,7502,5025,8644,8198,8229,32.1914,
6,8321,7915,8080,5165,7476,5042,8644,8194,8225,32.2072,
7,8310,7933,8060,5196,7474,5093,8646,8193,8222,32.2229,
8,8295,7977,8045,5299,7504,5192,8646,8196,8222,32.2387,
9,8292,7975,8056,5301,7505,5198,8649,8205,8219,32.2545,
12,8279,8012,8051,5151,7458,5193,8641,8197,8217,32.3017,
13,8286,8026,8032,5204,7426,5225,8647,8194,8215,32.3175,
14,8286,8041,8014,5254,7426,5259,8649,8198,8216,32.3333,
15,8311,8013,8006,5171,7422,5320,8649,8196,8216,32.349,
16,8330,7984,7993,5038,7444,5249,8649,8193,8211,32.3648,
17,8358,7984,7969,4965,7448,5154,8653,8188,8213,32.3805,
18,8378,8040,7939,5061,7465,5082,8650,8195,8211,32.3963,
19,8419,8170,7897,5070,7448,5096,8649,8191,8213,32.4121,
20,8445,8214,7867,5235,7463,5073,8651,8191,8213,32.4278,
21,8469,8221,7810,5388,7458,5132,8649,8189,8214,32.4436,
22,8477,8199,7786,5425,7465,5127,8649,8186,8212,32.4593,
23,8480,8159,7752,5422,7471,4999,8647,8184,8212,32.4751,
24,8480,8172,7751,5411,7465,4935,8646,8182,8216,32.4909,
25,8463,8266,7757,5289,7456,4856,8648,8183,8217,32.5066,
26,8452,8326,7749,5400,7465,4878,8649,8177,8218,32.5224,
27,8443,8413,7744,5455,7430,4884,8642,8174,8219,32.5381,
28,8426,8442,7780,5729,7412,4973,8646,8162,8223,32.5539,
29,8425,8376,7821,5859,7447,4957,8651,8170,8222,32.5697,
30,8422,8139,7945,5796,7449,4843,8646,8162,8222,32.5854,
31,8410,8025,7994,5481,7414,4734,8648,8172,8221,32.6012,
32,8358,7911,8042,5316,7418,4725,8653,8168,8220,32.6169,
33,8333,7900,8052,5288,7471,4789,8647,8172,8218,32.6327,
34,8291,7900,8084,5195,7504,4924,8647,8171,8217,32.6485,
35,8275,7885,8109,5189,7531,4916,8655,8172,8212,32.6642,
36,8239,7870,8153,5073,7571,4990,8649,8171,8212,32.68,
37,8219,7891,8170,5079,7607,5030,8649,8170,8211,32.6957,
38,8189,7947,8207,5003,7669,5047,8653,8157,8209,32.7115,
39,8171,7981,8218,4967,7701,5001,8648,8168,8207,32.7273,
40,8129,8055,8221,5020,7731,5058,8650,8176,8206,32.743,
41,8096,8073,8232,4957,7709,5207,8648,8172,8209,32.7588,
42,8064,8044,8229,4872,7678,5233,8648,8169,8207,32.7745,
43,8039,8041,8160,4796,7613,5301,8649,8172,8205,32.7903,
44,8036,8062,8127,4819,7577,5369,8652,8171,8206,32.8061,
45,8057,8131,8087,4829,7552,5352,8645,8168,8203,32.8218,
46,8068,8196,8071,4919,7477,5418,8653,8172,8205,32.8376,
47,8104,8298,8050,4970,7444,5451,8653,8168,8208,32.8533,
48,8123,8312,8049,5264,7429,5488,8651,8170,8207,32.8691,
49,8160,8334,8073,5341,7431,5445,8653,8171,8211,32.8849,
50,8190,8296,8108,5224,7416,5400,8659,8169,8210,32.9006,
51,8237,8179,8132,5096,7477,5274,8651,8166,8209,32.9164,
52,8245,8132,8150,5037,7514,5216,8654,8171,8212,32.9322,
53,8265,8111,8197,4976,7599,5161,8650,8171,8211,32.9479,
54,8262,8120,8214,4961,7697,5145,8648,8173,8211,32.9637,
55,8254,8112,8239,4915,7704,5147,8649,8172,8213,32.9794,
56,8231,8075,8252,4703,7773,5091,8649,8172,8211,32.9952,
57,8211,8058,8248,4652,7806,5037,8643,8173,8210,33.011,
58,8172,8105,8241,4693,7846,5028,8650,8161,8210,33.0267,
59,8154,8137,8222,4884,7869,5140,8651,8172,8206,33.0425,
60,8121,8113,8212,4916,7868,5167,8640,8174,8208,33.0582,
61,8102,8103,8200,4928,7832,5165,8650,8171,8206,33.074,
62,8071,8089,8156,4895,7807,5159,8652,8176,8205,33.0898,
63,8055,8081,8120,4864,7732,5162,8650,8174,8208,33.1055,
0,8038,8079,8072,5007,7716,5211,8654,8168,8207,33.1213,
1,8037,8079,8052,5096,7713,5266,8649,8167,8207,33.137,
2,8037,8020,8067,4997,7650,5292,8655,8173,8204,33.1528,
3,8031,7987,8071,4832,7586,5232,8660,8170,8206,33.1686,
4,8020,8003,8018,4742,7479,5243,8651,8168,8200,33.1843,
5,8021,8053,7984,4846,7394,5315,8652,8167,8200,33.2001,
6,8035,8057,7934,4920,7352,5337,8660,8163,8199,33.2158,
7,8051,8062,7932,5031,7279,5344,8651,8145,8198,33.2316,
8,8063,8077,7938,5138,7279,5341,8656,8166,8198,33.2474,
9,8081,8115,8029,5198,7263,5285,8657,8162,8195,33.2631,
10,8091,8140,8084,5164,7301,5145,8654,8161,8198,33.2789,
11,8091,8244,8186,5185,7328,5124,8653,8167,8204,33.2946,
12,8089,8287,8233,5238,7409,5108,8653,8159,8201,33.3104,
13,8090,8336,8288,5302,7458,5120,8654,8164,8202,33.3262,
14,8083,8353,8320,5254,7468,5115,8653,8169,8205,33.3419,
15,8070,8367,8325,5343,7555,5079,8655,8163,8208,33.3577,
16,8065,8383,8342,5329,7583,5041,8650,8163,8210,33.3734,
17,8055,8430,8365,5290,7606,4901,8652,8169,8213,33.3892,
18,8045,8466,8373,5337,7614,4850,8665,8169,8213,33.405,
19,8027,8554,8386,5370,7620,4878,8652,8174,8219,33.4207,
20,8020,8602,8394,5339,7603,4904,8647,8173,8220,33.4365,
21,8011,8620,8385,5364,7589,4888,8646,8171,8223,33.4522,
22,8017,8679,8361,5473,7568,4895,8649,8174,8229,33.468,
23,8020,8663,8354,5553,7532,4802,8652,8180,8231,33.4838,
24,8026,8533,8311,5586,7527,4761,8655,8173,8236,33.4995,
25,8031,8466,8274,5573,7508,4743,8647,8176,8237,33.5153,
26,8027,8362,8195,5605,7517,4780,8644,8173,8239,33.531,
27,8023,8305,8166,5734,7552,4863,8646,8178,8242,33.5468,
28,8024,8210,8159,5627,7529,4803,8647,8176,8237,33.5626,
29,8020,8195,8171,5548,7504,4757,8640,8176,8238,33.5783,
30,7999,8253,8180,5629,7479,4773,8643,8177,8240,33.5941,
31,7997,8308,8202,5630,7451,4821,8651,8184,8243,33.6099,
32,8000,8362,8209,5721,7445,4934,8645,8178,8243,33.6256,
33,8000,8338,8219,5628,7436,5019,8644,8180,8243,33.6414,
34,8008,8317,8225,5615,7443,4992,8639,8176,8245,33.6571,
35,8021,8287,8249,5462,7433,4947,8642,8177,8245,33.6729,
36,8026,8275,8251,5334,7429,4847,8637,8176,8247,33.6887,
37,8011,8302,8237,5399,7435,4687,8642,8166,8250,33.7044,
38,7999,8353,8240,5381,7379,4737,8641,8176,8247,33.7202,
39,7997,8408,8213,5435,7372,4811,8648,8178,8249,33.7359,
42,8015,8298,8248,5364,7341,4876,8637,8176,8254,33.7832,
43,8024,8232,8236,5371,7378,4770,8640,8177,8255,33.799,
44,8032,8237,8245,5395,7387,4715,8635,8177,8258,33.8147,
45,8028,8281,8267,5462,7436,4636,8636,8180,8253,33.8305,
46,8024,8291,8267,5459,7456,4662,8641,8183,8258,33.8463,
47,8008,8257,8272,5438,7501,4658,8641,8188,8256,33.862,
48,7981,8253,8273,5457,7525,4605,8638,8184,8258,33.8778,
49,7961,8249,8268,5470,7516,4631,8639,8184,8260,33.8935,
50,7928,8214,8238,5451,7489,4593,8642,8183,8261,33.9093,
51,7910,8193,8211,5464,7446,4605,8634,8182,8261,33.9251,
52,7895,8177,8165,5598,7443,4697,8639,8199,8261,33.9408,
53,7893,8162,8168,5608,7344,4800,8634,8180,8261,33.9566,
54,7905,8122,8153,5585,7286,4850,8635,8180,8260,33.9723,
55,7913,8105,8131,5509,7154,5049,8636,8162,8257,33.9881,
56,7952,8005,8047,5416,7088,5137,8632,8176,8257,34.0039,
57,7978,7940,8010,5461,7100,5125,8639,8179,8256,34.0196,
58,8039,7922,7975,5559,7120,5040,8635,8174,8255,34.0354,
59,8073,7955,7989,5600,7154,5004,8641,8175,8255,34.0511,
60,8126,8013,8070,5674,7191,4983,8640,8156,8252,34.0669,
61,8138,8041,8180,5551,7207,4941,8635,8173,8252,34.0827,
62,8161,8064,8169,5515,7224,4879,8640,8179,8250,34.0984,
63,8176,8097,8193,5485,7278,4806,8639,8175,8249,34.1142,
0,8173,8119,8201,5525,7299,4787,8631,8172,8248,34.1299,
1,8151,8144,8186,5392,7234,4746,8639,8174,8249,34.1457,
2,8145,8129,8149,5392,7196,4846,8639,8173,8250,34.1615,
3,8138,8070,8091,5387,7213,4811,8634,8173,8248,34.1772,
4,8134,8050,8078,5416,7238,4729,8637,8171,8251,34.193,
5,8125,8068,8091,5468,7235,4693,8645,8176,8251,34.2087,
6,8114,8103,8105,5581,7272,4719,8639,8174,8247,34.2245,
7,8110,8112,8167,5481,7266,4821,8646,8172,8248,34.2403,
8,8112,8113,8187,5401,7270,4838,8634,8173,8245,34.256,
9,8127,8117,8193,5373,7284,4919,8637,8173,8247,34.2718,
10,8139,8111,8182,5384,7273,4917,8634,8172,8248,34.2875,
11,8137,8105,8169,5413,7275,4870,8640,8176,8247,34.3033,
12,8137,8101,8157,5511,7276,4879,8643,8176,8245,34.3191,
13,8139,8094,8158,5505,7271,4877,8648,8174,8246,34.3348,
14,8124,8074,8170,5527,7287,4912,8638,8175,8245,34.3506,
15,8124,8074,8176,5518,7286,4928,8644,8181,8248,34.3664,
16,8117,8083,8204,5464,7290,4908,8640,8191,8244,34.3821,
17,8123,8101,8207,5426,7279,4857,8644,8178,8244,34.3979,
18,8129,8133,8214,5489,7297,4861,8644,8180,8244,34.4136,
19,8138,8137,8237,5508,7362,4790,8641,8176,8244,34.4294,
20,8138,8166,8255,5484,7348,4743,8640,8183,8246,34.4452,
21,8134,8187,8259,5477,7355,4772,8641,8169,8248,34.4609,
22,8148,8214,8262,5474,7377,4775,8639,8178,8244,34.4767,
23,8158,8227,8250,5514,7380,4802,8644,8185,8248,34.4924,
24,8176,8201,8226,5528,7400,4814,8640,8181,8248,34.5082,
25,8187,8115,8203,5514,7385,4776,8640,8179,8246,34.524,
26,8188,8084,8187,5479,7402,4725,8641,8182,8245,34.5397,
27,8194,8023,8159,5501,7413,4693,8641,8180,8247,34.5555,
28,8197,7993,8153,5449,7405,4706,8636,8180,8246,34.5712,
29,8196,7949,8139,5301,7389,4839,8641,8181,8243,34.587,
30,8199,7956,8114,5306,7408,4881,8637,8182,8239,34.6028,
31,8215,7967,8123,5384,7404,4796,8637,8184,8240,34.6185,
32,8213,7967,8116,5341,7367,4780,8643,8181,8238,34.6343,
33,8195,7943,8104,5297,7360,4766,8652,8184,8239,34.65,
34,8181,7969,8097,5359,7348,4856,8645,8194,8236,34.6658,
35,8177,8013,8118,5361,7345,4901,8643,8181,8236,34.6816,
36,8175,8013,8118,5368,7347,4972,8640,8182,8232,34.6973,
37,8187,7987,8135,5364,7347,4985,8642,8181,8232,34.7131,
38,8197,7971,8135,5333,7377,4988,8645,8180,8230,34.7288,
39,8208,7974,8150,5315,7393,5038,8644,8197,8230,34.7446,
40,8234,8020,8175,5220,7411,4983,8653,8183,8228,34.7604,
41,8235,8040,8168,5236,7431,4992,8640,8182,8228,34.7761,
42,8250,8050,8159,5198,7457,5014,8645,8183,8227,34.7919,
43,8244,8044,8151,5196,7471,5037,8651,8184,8226,34.8076,
44,8236,8041,8135,5166,7482,5023,8644,8186,8224,34.8234,
45,8234,8048,8127,5191,7478,5022,8649,8188,8225,34.8392,
46,8232,8062,8108,5211,7480,5057,8652,8183,8224,34.8549,
47,8222,8063,8106,5280,7483,5111,8645,8182,8224,34.8707,
48,8216,8059,8108,5217,7468,5086,8646,8188,8225,34.8864,
49,8209,8061,8095,5205,7434,5147,8649,8180,8222,34.9022,
50,8202,8075,8080,5224,7434,5139,8643,8185,8221,34.918,
51,8196,8090,8075,5233,7419,5138,8645,8185,8222,34.9337,
52,8200,8093,8078,5258,7416,5134,8646,8179,8219,34.9495,
53,8200,8093,8087,5264,7404,5160,8642,8180,8219,34.9652,
54,8214,8084,8084,5208,7394,5184,8648,8180,8217,34.981,
55,8227,8093,8079,5242,7412,5087,8645,8180,8218,34.9968,
56,8228,8091,8084,5219,7416,5099,8644,8178,8215,35.0125,
57,8236,8118,8079,5269,7427,5083,8646,8179,8217,35.0283,
58,8236,8131,8090,5263,7403,5066,8653,8181,8218,35.0441,
59,8237,8141,8081,5250,7420,5032,8645,8186,8217,35.0598,
60,8232,8150,8073,5182,7396,5073,8645,8181,8218,35.0756,
61,8242,8169,8082,5160,7377,5044,8651,8183,8219,35.0913,
62,8254,8169,8068,5252,7413,5020,8648,8177,8217,35.1071,
63,8256,8154,8064,5225,7401,5014,8643,8175,8220,35.1229,
0,8257,8149,8061,5144,7406,4965,8649,8177,8218,35.1386,
1,8252,8209,8068,5249,7461,4939,8648,8176,8221,35.1544,
2,8244,8251,8082,5303,7452,4969,8649,8178,8220,35.1701,
3,8237,8298,8131,5323,7463,5003,8646,8177,8220,35.1859,
4,8225,8283,8163,5293,7456,4965,8653,8178,8221,35.2017,
5,8218,8268,8178,5341,7477,4942,8643,8177,8224,35.2174,
6,8198,8265,8178,5318,7503,4893,8644,8176,8225,35.2332,
7,8180,8263,8172,5317,7502,4904,8657,8181,8225,35.2489,
8,8153,8246,8184,5314,7535,4971,8643,8204,8227,35.2647,
9,8140,8226,8183,5302,7513,4986,8649,8184,8226,35.2805,
10,8136,8184,8179,5264,7523,4967,8645,8174,8228,35.2962,
11,8130,8163,8167,5161,7497,5017,8647,8178,8228,35.312,
12,8123,8155,8142,5248,7508,5041,8651,8186,8226,35.3277,
13,8128,8150,8135,5223,7477,5035,8648,8181,8225,35.3435,
14,8114,8153,8124,5246,7435,5077,8645,8180,8228,35.3593,
15,8121,8153,8126,5259,7434,5075,8646,8185,8228,35.375,
16,8136,8160,8131,5244,7439,5044,8645,8179,8226,35.3908,
17,8138,8148,8114,5248,7437,5045,8643,8176,8229,35.4065,
18,8140,8149,8119,5291,7451,5015,8644,8180,8226,35.4223,
19,8147,8182,8136,5268,7444,4991,8642,8177,8226,35.4381,
20,8144,8196,8133,5295,7458,5001,8637,8180,8228,35.4538,
21,8151,8209,8145,5289,7455,4956,8645,8178,8226,35.4696,
22,8150,8216,8156,5284,7457,4935,8648,8180,8231,35.4853,
23,8134,8207,8159,5325,7477,4929,8643,8180,8228,35.5011,
24,8130,8201,8157,5258,7460,4888,8652,8182,8231,35.5169,
25,8127,8197,8153,5280,7447,4909,8647,8177,8230,35.5326,
26,8122,8207,8148,5328,7444,4988,8644,8181,8230,35.5484,
27,8143,8212,8163,5299,7441,4962,8643,8180,8230,35.5641,
28,8154,8221,8149,5333,7441,4933,8643,8177,8232,35.5799,
29,8157,8219,8146,5357,7455,4911,8651,8181,8230,35.5957,
30,8153,8206,8149,5374,7464,4934,8638,8179,8230,35.6114,
31,8146,8149,8142,5298,7460,4879,8645,8180,8231,35.6272,
32,8139,8147,8136,5295,7463,4867,8637,8177,8231,35.6429,
33,8140,8162,8133,5365,7488,4915,8646,8182,8230,35.6587,
34,8145,8151,8132,5376,7464,4931,8640,8180,8232,35.6745,
35,8140,8132,8145,5335,7476,4938,8641,8179,8232,35.6902,
36,8140,8124,8143,5336,7475,4915,8644,8178,8230,35.706,
37,8139,8129,8150,5368,7496,4934,8641,8179,8232,35.7217,
38,8137,8122,8144,5308,7483,4932,8642,8177,8231,35.7375,
39,8138,8127,8141,5322,7501,4909,8643,8173,8232,35.7533,
40,8141,8160,8151,5335,7512,4910,8639,8181,8233,35.769,
41,8127,8157,8160,5322,7520,4929,8642,8178,8232,35.7848,
44,8128,8172,8156,5347,7510,4957,8643,8181,8230,35.8321,
45,8131,8160,8148,5353,7518,4945,8646,8179,8232,35.8478,
46,8126,8152,8149,5325,7511,4918,8640,8181,8235,35.8636,
47,8122,8142,8148,5321,7501,4921,8648,8180,8233,35.8794,
48,8128,8140,8144,5317,7496,4934,8641,8177,8232,35.8951,
49,8124,8142,8139,5330,7488,4933,8645,8178,8232,35.9109,
50,8126,8146,8141,5335,7482,4943,8652,8180,8232,35.9266,
51,8121,8130,8141,5306,7473,4924,8643,8176,8234,35.9424,
52,8138,8135,8136,5285,7467,4901,8644,8180,8230,35.9582,
53,8127,8139,8124,5307,7463,4972,8646,8170,8231,35.9739,
54,8131,8138,8120,5308,7448,4949,8645,8181,8233,35.9897,
55,8152,8159,8118,5300,7445,4937,8642,8178,8233,36.0054,
56,8151,8168,8121,5381,7458,4943,8642,8173,8233,36.0212,
57,8147,8152,8124,5388,7471,4939,8637,8179,8231,36.037,
58,8145,8139,8131,5379,7482,4879,8644,8170,8233,36.0527,
59,8119,8116,8157,5334,7462,4911,8642,8177,8230,36.0685,
60,8118,8115,8161,5324,7450,4901,8643,8183,8231,36.0842,
61,8115,8125,8171,5321,7463,4885,8645,8190,8232,36.1,
62,8112,8130,8160,5331,7452,4896,8642,8176,8230,36.1158,
63,8111,8125,8164,5329,7437,4940,8645,8183,8231,36.1315,
0,8133,8108,8160,5357,7460,4912,8643,8175,8232,36.1473,
1,8132,8094,8159,5361,7485,4890,8643,8182,8232,36.163,
2,8109,8089,8165,5360,7476,4913,8644,8184,8232,36.1788,
3,8097,8088,8163,5363,7470,4996,8638,8178,8228,36.1946,
4,8128,8064,8182,5318,7475,4931,8653,8182,8228,36.2103,
5,8124,8060,8179,5266,7467,4982,8645,8178,8230,36.2261,
6,8111,8077,8157,5246,7453,5068,8643,8180,8227,36.2418,
7,8127,8081,8156,5237,7471,4944,8646,8181,8227,36.2576,
8,8130,8097,8152,5261,7468,4939,8640,8183,8230,36.2734,
9,8116,8125,8147,5283,7465,4979,8645,8182,8226,36.2891,
10,8109,8128,8155,5339,7486,4989,8641,8179,8229,36.3049,
11,8099,8120,8163,5313,7476,5054,8643,8182,8227,36.3206,
12,8109,8124,8164,5241,7449,4977,8643,8180,8230,36.3364,
13,8099,8147,8141,5251,7416,5088,8642,8180,8225,36.3522,
14,8110,8152,8127,5260,7420,5072,8651,8183,8226,36.3679,
15,8138,8157,8121,5276,7411,5044,8644,8180,8228,36.3837,
16,8139,8159,8122,5308,7429,5084,8644,8181,8225,36.3994,
17,8171,8179,8133,5271,7428,5027,8646,8178,8229,36.4152,
18,8180,8180,8132,5327,7454,5021,8644,8179,8227,36.431,
19,8180,8180,8139,5297,7476,4982,8646,8177,8228,36.4467,
20,8172,8175,8142,5286,7473,4957,8644,8181,8228,36.4625,
21,8154,8186,8146,5290,7470,4969,8643,8185,8229,36.4783,
22,8158,8194,8151,5282,7465,4984,8647,8170,8229,36.494,
23,8156,8190,8148,5276,7475,4909,8642,8177,8229,36.5098,
24,8139,8185,8133,5342,7495,4947,8641,8179,8228,36.5255,
25,8138,8177,8133,5316,7478,4937,8646,8179,8227,36.5413,
26,8120,8169,8156,5319,7464,4965,8648,8183,8228,36.5571,
27,8126,8169,8150,5306,7464,4943,8646,8169,8229,36.5728,
28,8130,8172,8137,5287,7452,4981,8644,8179,8230,36.5886,
29,8130,8160,8145,5282,7449,4996,8640,8177,8229,36.6043,
30,8144,8173,8122,5291,7447,4970,8643,8179,8231,36.6201,
31,8153,8176,8127,5277,7440,4970,8651,8178,8228,36.6359,
32,8158,8184,8126,5320,7453,4936,8645,8179,8228,36.6516,
33,8159,8187,8128,5328,7438,4945,8644,8178,8228,36.6674,
34,8168,8198,8132,5349,7452,4915,8644,8178,8230,36.6831,
35,8162,8187,8133,5378,7474,4929,8642,8181,8229,36.6989,
36,8150,8169,8129,5377,7466,4938,8652,8181,8229,36.7147,
37,8146,8173,8149,5287,7458,4901,8649,8176,8230,36.7304,
38,8140,8168,8143,5315,7475,4921,8643,8178,8232,36.7462,
39,8143,8183,8144,5305,7461,4912,8642,8183,8233,36.7619,
40,8143,8188,8131,5309,7451,4921,8642,8180,8230,36.7777,
41,8145,8181,8123,5390,7452,4922,8644,8178,8231,36.7935,
42,8148,8174,8117,5369,7458,4901,8650,8176,8231,36.8092,
43,8138,8159,8128,5364,7449,4920,8645,8181,8231,36.825,
44,8139,8158,8135,5373,7452,4933,8645,8182,8233,36.8407,
45,8136,8150,8142,5368,7442,4950,8642,8183,8232,36.8565,
46,8142,8146,8142,5346,7459,4927,8649,8177,8232,36.8723,
47,8144,8160,8141,5338,7455,4941,8651,8176,8230,36.888,
48,8150,8162,8141,5317,7452,4906,8645,8178,8232,36.9038,
49,8155,8159,8146,5313,7454,4901,8639,8179,8230,36.9195,
50,8147,8176,8143,5358,7447,4916,8644,8177,8231,36.9353,
51,8145,8170,8147,5422,7456,4964,8639,8182,8233,36.9511,
52,8149,8130,8168,5391,7449,4987,8641,8180,8232,36.9668,
53,8152,8127,8174,5323,7470,4899,8644,8180,8230,36.9826,
54,8149,8125,8164,5317,7481,4917,8642,8183,8231,36.9983,
55,8151,8127,8166,5305,7501,4920,8646,8179,8232,37.0141,
56,8143,8134,8156,5322,7505,4933,8649,8179,8231,37.0299,
57,8134,8139,8142,5373,7503,4983,8642,8185,8231,37.0456,
58,8151,8128,8164,5338,7500,4866,8642,8181,8231,37.0614,
59,8134,8101,8160,5352,7500,4885,8648,8184,8232,37.0771,
60,8123,8073,8149,5305,7495,4885,8646,8188,8230,37.0929,
61,8113,8072,8160,5284,7492,4940,8643,8179,8229,37.1087,
62,8112,8085,8147,5242,7472,4939,8638,8177,8229,37.1244,
63,8106,8097,8149,5261,7471,4974,8643,8180,8228,37.1402,
0,8118,8115,8146,5276,7468,5064,8643,8179,8230,37.1559,
1,8137,8130,8153,5284,7472,5020,8643,8179,8229,37.1717,
2,8142,8133,8151,5270,7469,5039,8647,8179,8229,37.1875,
3,8137,8147,8142,5285,7465,5057,8648,8182,8228,37.2032,
4,8151,8161,8144,5268,7484,4999,8645,8178,8226,37.219,
5,8155,8175,8144,5267,7481,5001,8646,8177,8229,37.2348,
6,8153,8186,8137,5285,7484,5022,8642,8180,8231,37.2505,
7,8152,8197,8133,5293,7487,4988,8643,8183,8227,37.2663,
8,8162,8214,8145,5288,7501,4966,8638,8181,8228,37.282,
9,8147,8211,8138,5296,7466,4976,8647,8169,8229,37.2978,
10,8145,8205,8128,5317,7470,4968,8649,8182,8230,37.3136,
11,8152,8192,8122,5285,7453,4948,8644,8180,8231,37.3293,
12,8153,8195,8122,5318,7462,4939,8644,8178,8230,37.3451,
13,8146,8203,8109,5332,7462,4929,8639,8175,8230,37.3608,
14,8147,8193,8103,5390,7460,4919,8642,8189,8228,37.3766,
15,8147,8186,8126,5352,7460,4931,8645,8179,8231,37.3924,
16,8145,8175,8137,5311,7446,4910,8649,8179,8232,37.4081,
17,8142,8181,8136,5322,7446,4898,8644,8179,8230,37.4239,
18,8138,8187,8134,5343,7444,4899,8641,8177,8233,37.4396,
19,8140,8186,8140,5335,7440,4899,8638,8173,8233,37.4554,
20,8136,8176,8118,5377,7423,4869,8650,8178,8234,37.4712,
21,8137,8170,8122,5408,7435,4881,8647,8178,8233,37.4869,
22,8142,8153,8130,5422,7438,4933,8641,8177,8232,37.5027,
23,8145,8149,8143,5388,7434,4919,8641,8176,8232,37.5184,
24,8150,8138,8154,5359,7429,4924,8642,8178,8232,37.5342,
25,8154,8140,8147,5341,7450,4918,8651,8175,8233,37.55,
26,8155,8134,8146,5344,7440,4951,8651,8179,8231,37.5657,
27,8156,8135,8147,5327,7467,4903,8646,8178,8233,37.5815,
28,8153,8136,8155,5319,7463,4915,8638,8175,8230,37.5972,
29,8159,8155,8146,5312,7465,4902,8643,8179,8231,37.613,
30,8161,8160,8141,5369,7470,4956,8649,8182,8232,37.6288,
31,8156,8134,8144,5362,7473,4957,8648,8179,8233,37.6445,
32,8146,8128,8143,5329,7467,4943,8645,8179,8231,37.6603,
33,8146,8129,8144,5305,7473,4950,8639,8176,8232,37.676,
34,8145,8137,8144,5306,7474,4955,8644,8178,8230,37.6918,
35,8146,8151,8144,5300,7476,4946,8644,8181,8232,37.7076,
36,8149,8160,8143,5330,7477,4951,8645,8181,8231,37.7233,
37,8150,8161,8142,5314,7484,4945,8643,8178,8230,37.7391,
38,8150,8179,8156,5321,7470,4941,8644,8177,8230,37.7548,
39,8151,8183,8161,5300,7479,4982,8643,8178,8232,37.7706,
40,8147,8179,8153,5293,7473,4971,8643,8180,8231,37.7864,
41,8152,8188,8145,5296,7490,4970,8642,8183,8231,37.8021,
42,8155,8200,8140,5325,7488,4962,8643,8178,8231,37.8179,
43,8163,8203,8135,5330,7498,4964,8645,8183,8235,37.8336,
44,8152,8199,8144,5321,7497,4949,8646,8180,8234,37.8494,
45,8154,8212,8138,5325,7476,4955,8639,8177,8232,37.8652,
46,8161,8217,8131,5329,7489,4937,8639,8181,8234,37.8809,
47,8153,8204,8137,5355,7466,4944,8644,8182,8236,37.8967,
48,8157,8191,8143,5353,7477,4933,8643,8178,8235,37.9125,
49,8166,8194,8131,5369,7480,4914,8639,8174,8234,37.9282,
50,8172,8185,8134,5373,7470,4911,8645,8179,8236,37.944,
51,8177,8176,8128,5359,7474,4894,8657,8178,8235,37.9597,
52,8185,8151,8121,5327,7481,4864,8648,8167,8233,37.9755,
53,8186,8162,8112,5334,7481,4884,8644,8180,8233,37.9913,
54,8181,8154,8102,5346,7468,4901,8643,8184,8234,38.007,
55,8183,8151,8102,5360,7482,4871,8641,8177,8232,38.0228,
56,8187,8149,8096,5346,7471,4883,8637,8178,8235,38.0385,
57,8185,8170,8103,5364,7497,4869,8642,8165,8235,38.0543,
58,8183,8176,8109,5388,7508,4868,8651,8179,8233,38.0701,
59,8182,8191,8113,5401,7493,4876,8639,8176,8235,38.0858,
60,8178,8191,8121,5349,7491,4882,8643,8179,8236,38.1016,
61,8182,8191,8128,5349,7497,4865,8647,8177,8237,38.1173,
62,8178,8181,8117,5379,7492,4900,8641,8186,8235,38.1331,
63,8180,8166,8106,5358,7487,4902,8640,8183,8237,38.1489,
0,8189,8152,8103,5345,7493,4884,8647,8176,8235,38.1646,
1,8188,8119,8093,5382,7480,4931,8642,8177,8237,38.1804,
2,8200,8093,8082,5385,7498,4914,8641,8177,8237,38.1961,
3,8193,8083,8079,5323,7471,4922,8644,8176,8234,38.2119,
4,8190,8075,8068,5345,7456,4973,8645,8172,8235,38.2277,
5,8208,8062,8064,5296,7462,4972,8651,8173,8232,38.2434,
6,8236,8078,8048,5292,7462,4958,8643,8176,8232,38.2592,
7,8250,8099,8048,5324,7471,4960,8648,8181,8234,38.2749,
8,8276,8139,8050,5327,7477,4949,8643,8175,8233,38.2907,
9,8284,8149,8051,5327,7484,4932,8638,8175,8232,38.3065,
10,8287,8167,8034,5403,7504,4944,8642,8172,8233,38.3222,
11,8282,8155,8037,5395,7522,4927,8642,8175,8232,38.338,
12,8281,8122,8047,5326,7521,4903,8650,8171,8233,38.3537,
13,8275,8123,8037,5288,7525,4880,8645,8170,8233,38.3695,
14,8266,8124,8019,5352,7546,4943,8643,8168,8232,38.3853,
15,8261,8093,8021,5313,7536,4903,8650,8169,8232,38.401,
16,8256,8068,8009,5316,7529,4856,8645,8167,8232,38.4168,
17,8244,8088,8009,5313,7519,4833,8643,8169,8230,38.4325,
18,8212,8099,8007,5394,7496,4901,8642,8188,8229,38.4483,
19,8209,8080,8007,5395,7494,4914,8643,8168,8231,38.4641,
20,8186,8056,8030,5350,7481,4927,8640,8170,8228,38.4798,
21,8177,8084,8054,5369,7477,4879,8644,8166,8226,38.4956,
22,8163,8111,8068,5370,7465,4904,8648,8163,8227,38.5113,
23,8145,8140,8092,5378,7468,4912,8645,8164,8229,38.5271,
24,8137,8171,8124,5426,7470,4883,8645,8165,8226,38.5429,
25,8101,8207,8168,5449,7468,4903,8643,8168,8229,38.5586,
26,8091,8211,8193,5400,7449,4956,8644,8166,8229,38.5744,
29,8090,8176,8200,5359,7448,4985,8641,8166,8229,38.6217,
30,8092,8174,8196,5343,7436,4965,8639,8164,8230,38.6374,
31,8097,8162,8192,5319,7435,4924,8640,8175,8228,38.6532,
32,8101,8168,8176,5331,7442,4947,8646,8173,8230,38.669,
33,8118,8181,8187,5343,7443,4931,8651,8165,8231,38.6847,
34,8132,8168,8177,5344,7459,4940,8645,8172,8230,38.7005,
35,8130,8160,8185,5331,7449,4924,8645,8170,8233,38.7162,
36,8143,8164,8167,5332,7445,4930,8646,8159,8234,38.732,
37,8151,8169,8163,5316,7469,4910,8642,8168,8231,38.7478,
38,8166,8172,8151,5323,7477,4889,8642,8171,8233,38.7635,
39,8167,8182,8152,5359,7497,4900,8643,8170,8229,38.7793,
40,8164,8184,8158,5361,7489,4924,8640,8167,8229,38.795,
41,8156,8170,8160,5348,7510,4891,8645,8179,8232,38.8108,
42,8149,8151,8159,5329,7515,4910,8642,8171,8234,38.8266,
43,8149,8146,8160,5332,7500,4942,8642,8167,8230,38.8423,
44,8151,8125,8154,5334,7539,4824,8643,8172,8232,38.8581,
45,8131,8116,8143,5330,7511,4894,8650,8173,8231,38.8738,
46,8129,8132,8133,5345,7524,4893,8647,8166,8233,38.8896,
47,8127,8129,8137,5360,7516,4930,8641,8172,8229,38.9054,
48,8118,8112,8151,5334,7495,4938,8646,8169,8230,38.9211,
49,8122,8118,8140,5342,7489,4940,8643,8168,8231,38.9369,
50,8125,8117,8136,5340,7497,4959,8639,8171,8229,38.9526,
51,8122,8115,8148,5327,7495,4947,8643,8166,8232,38.9684,
52,8122,8116,8148,5343,7489,4955,8646,8167,8232,38.9842,
53,8120,8133,8155,5340,7497,4961,8636,8169,8230,38.9999,
54,8121,8140,8162,5312,7499,4944,8645,8167,8230,39.0157,
55,8118,8149,8166,5298,7492,4954,8646,8173,8230,39.0314,
56,8117,8156,8157,5329,7479,4986,8647,8155,8230,39.0472,
57,8124,8143,8162,5338,7471,4983,8642,8169,8228,39.063,
58,8129,8135,8153,5342,7467,4981,8646,8175,8231,39.0787,
59,8129,8133,8162,5307,7466,4920,8642,8166,8229,39.0945,
60,8135,8141,8151,5332,7466,4944,8646,8173,8230,39.1102,
61,8141,8141,8155,5319,7459,4957,8645,8157,8228,39.126,
62,8154,8161,8151,5362,7487,4934,8643,8171,8230,39.1418,
63,8155,8155,8151,5340,7490,4935,8642,8174,8229,39.1575,
0,8163,8175,8144,5334,7517,4877,8647,8169,8231,39.1733,
1,8154,8168,8145,5403,7534,4933,8652,8169,8230,39.189,
2,8146,8105,8181,5328,7524,4911,8647,8169,8230,39.2048,
3,8145,8094,8165,5255,7516,4848,8645,8167,8228,39.2206,
4,8127,8125,8151,5283,7523,4863,8649,8171,8229,39.2363,
5,8121,8140,8138,5384,7521,4885,8644,8170,8230,39.2521,
6,8116,8125,8154,5385,7520,4900,8649,8172,8230,39.2678,
7,8110,8123,8158,5373,7518,4898,8647,8189,8229,39.2836,
8,8095,8130,8166,5361,7493,4939,8646,8168,8230,39.2994,
9,8097,8123,8164,5343,7484,4990,8646,8175,8229,39.3151,
10,8119,8107,8167,5306,7496,4983,8647,8179,8230,39.3309,
11,8124,8100,8155,5319,7509,4948,8641,8172,8229,39.3467,
12,8126,8093,8156,5329,7506,4992,8646,8180,8228,39.3624,
13,8127,8071,8150,5329,7481,5004,8644,8170,8226,39.3782,
14,8144,8065,8145,5280,7499,4966,8649,8166,8225,39.3939,
15,8124,8035,8134,5262,7508,4908,8645,8177,8226,39.4097,
16,8121,8046,8131,5258,7524,4955,8646,8174,8227,39.4255,
17,8107,8085,8139,5292,7523,4988,8652,8168,8224,39.4412,
18,8112,8071,8150,5245,7507,5055,8643,8170,8224,39.457,
19,8136,8034,8147,5258,7517,5062,8649,8169,8222,39.4727,
20,8147,8037,8146,5141,7500,4916,8645,8175,8221,39.4885,
21,8137,8039,8098,5267,7478,4992,8640,8168,8222,39.5043,
22,8147,8061,8088,5310,7473,4956,8647,8166,8219,39.52,
23,8159,8043,8075,5338,7452,4887,8645,8167,8220,39.5358,
24,8148,8016,8066,5427,7455,4980,8643,8167,8217,39.5515,
25,8155,7962,8078,5337,7415,5009,8646,8167,8214,39.5673,
26,8174,7919,8079,5338,7415,4994,8654,8169,8215,39.5831,
27,8172,7914,8091,5302,7385,5072,8657,8166,8212,39.5988,
28,8201,7877,8107,5235,7385,5140,8654,8164,8210,39.6146,
29,8212,7842,8113,5196,7393,5077,8643,8166,8209,39.6303,
30,8224,7866,8120,5150,7412,5043,8651,8165,8208,39.6461,
31,8222,7893,8117,5170,7410,5116,8657,8168,8203,39.6619,
32,8213,7892,8121,5159,7433,5115,8660,8168,8200,39.6776,
33,8212,7885,8121,5107,7445,5134,8651,8166,8201,39.6934,
34,8203,7894,8126,5096,7463,5137,8647,8161,8196,39.7091,
35,8206,7914,8120,5023,7484,5073,8650,8161,8194,39.7249,
36,8199,7977,8131,5141,7496,5149,8652,8165,8194,39.7407,
37,8178,8016,8135,5122,7492,5179,8654,8169,8194,39.7564,
38,8166,7996,8143,5034,7489,5050,8650,8161,8195,39.7722,
39,8155,7999,8146,4994,7486,5092,8655,8165,8190,39.7879,
40,8134,8048,8140,5002,7490,5220,8651,8155,8191,39.8037,
41,8132,8053,8124,4913,7471,5214,8653,8162,8190,39.8195,
42,8136,8091,8114,4965,7479,5259,8648,8165,8189,39.8352,
43,8156,8189,8108,5042,7487,5223,8652,8161,8189,39.851,
44,8158,8196,8112,5070,7485,5187,8655,8167,8190,39.8667,
45,8134,8179,8113,5195,7471,5193,8653,8162,8190,39.8825,
46,8135,8178,8127,5280,7466,5217,8649,8163,8189,39.8983,
47,8141,8150,8150,5213,7456,5196,8647,8162,8186,39.914,
48,8126,8083,8154,5113,7461,5170,8651,8150,8188,39.9298,
49,8083,8045,8163,5054,7469,5115,8660,8163,8190,39.9455,
50,8063,8067,8153,4948,7482,4987,8655,8145,8187,39.9613,
51,7998,8191,8142,5010,7505,5290,8651,8163,8186,39.9771,
52,7985,8267,8146,5124,7489,5560,8646,8162,8189,39.9928,
53,8071,8312,8212,5001,7453,5727,8651,8157,8191,40.0086,
54,8190,8254,8201,4784,7452,5491,8657,8164,8191,40.0243,
55,8197,8260,8144,4915,7491,5302,8651,8166,8192,40.0401,
56,8166,8273,8079,5104,7494,5457,8653,8163,8194,40.0559,
57,8185,8238,8077,5106,7473,5465,8655,8164,8192,40.0716,
58,8221,8191,8063,5011,7413,5365,8652,8163,8193,40.0874,
59,8227,8189,8056,5009,7400,5280,8664,8164,8196,40.1032,
60,8220,8180,8048,5038,7405,5292,8656,8165,8197,40.1189,
61,8229,8172,8042,5053,7385,5219,8651,8157,8195,40.1347,
62,8240,8164,8050,5062,7388,5162,8646,8155,8194,40.1504,
63,8230,8184,8052,5105,7389,5202,8649,8156,8196,40.1662,
0,8213,8210,8077,5080,7383,5154,8656,8160,8198,40.182,
1,8210,8214,8079,5072,7380,5141,8655,8159,8197,40.1977,
2,8193,8240,8091,5102,7371,5079,8652,8159,8198,40.2135,
3,8186,8317,8096,5147,7384,5067,8645,8159,8196,40.2292,
4,8159,8267,8105,5228,7370,5106,8649,8156,8199,40.245,
5,8135,8223,8137,5193,7360,5059,8657,8159,8202,40.2608,
6,8123,8215,8145,5192,7353,5020,8658,8160,8202,40.2765,
7,8089,8209,8165,5266,7368,5013,8651,8160,8201,40.2923,
8,8068,8204,8182,5283,7392,5033,8647,8154,8200,40.308,
9,8037,8174,8201,5273,7412,5046,8650,8161,8205,40.3238,
10,8032,8169,8202,5233,7413,5003,8650,8160,8203,40.3396,
11,7999,8181,8223,5226,7416,5016,8650,8160,8204,40.3553,
12,7990,8180,8238,5242,7406,5078,8650,8158,8202,40.3711,
13,7978,8163,8241,5251,7401,5093,8655,8159,8204,40.3868,
14,7981,8148,8250,5195,7390,5140,8649,8176,8204,40.4026,
15,7984,8140,8257,5171,7402,5129,8651,8161,8207,40.4184,
16,7985,8139,8259,5167,7408,5138,8650,8157,8201,40.4341,
17,7999,8141,8266,5161,7422,5207,8650,8163,8204,40.4499,
18,8031,8148,8264,5143,7434,5214,8652,8166,8204,40.4656,
19,8041,8150,8274,5097,7435,5202,8648,8164,8207,40.4814,
20,8069,8157,8259,5114,7454,5222,8650,8168,8205,40.4972,
21,8085,8155,8249,5093,7452,5223,8645,8162,8204,40.5129,
22,8109,8154,8235,5101,7496,5185,8650,8165,8204,40.5287,
23,8116,8151,8239,5089,7509,5182,8659,8172,8205,40.5444,
24,8112,8158,8218,5082,7502,5147,8650,8159,8206,40.5602,
25,8118,8152,8212,5066,7502,5108,8652,8166,8203,40.576,
26,8111,8137,8206,5061,7500,5085,8651,8168,8206,40.5917,
27,8113,8141,8190,5072,7505,5081,8651,8163,8204,40.6075,
28,8117,8160,8174,5085,7497,5107,8649,8171,8205,40.6232,
29,8121,8155,8164,5102,7497,5120,8648,8169,8205,40.639,
30,8116,8144,8162,5107,7496,5099,8652,8169,8202,40.6548,
31,8121,8141,8160,5101,7485,5089,8654,8171,8206,40.6705,
32,8112,8137,8160,5104,7466,5092,8651,8159,8205,40.6863,
33,8117,8137,8149,5123,7459,5106,8644,8167,8203,40.702,
34,8119,8139,8149,5149,7442,5117,8644,8167,8206,40.7178,
35,8123,8130,8155,5142,7452,5156,8649,8168,8205,40.7336,
36,8130,8130,8151,5149,7442,5166,8655,8169,8204,40.7493,
37,8140,8122,8144,5140,7445,5213,8653,8167,8204,40.7651,
38,8148,8127,8144,5128,7444,5191,8651,8167,8204,40.7809,
39,8150,8133,8147,5140,7445,5179,8650,8169,8204,40.7966,
40,8154,8138,8144,5157,7453,5155,8649,8167,8201,40.8124,
41,8145,8139,8146,5141,7450,5139,8648,8168,8204,40.8281,
42,8133,8141,8151,5147,7450,5120,8648,8170,8205,40.8439,
43,8119,8152,8144,5120,7435,5120,8645,8167,8203,40.8597,
44,8108,8162,8140,5130,7433,5124,8646,8167,8202,40.8754,
45,8097,8168,8141,5166,7427,5166,8650,8169,8203,40.8912,
46,8097,8164,8149,5168,7419,5185,8645,8168,8202,40.9069,
47,8097,8160,8154,5156,7421,5182,8649,8168,8203,40.9227,
48,8106,8162,8143,5152,7428,5155,8658,8171,8204,40.9385,
49,8096,8152,8159,5150,7429,5162,8656,8170,8205,40.9542,
50,8109,8156,8163,5117,7438,5116,8652,8169,8203,40.97,
51,8109,8158,8164,5084,7427,5108,8650,8169,8204,40.9857,
52,8105,8162,8167,5075,7430,5104,8652,8167,8202,41.0015,
53,8107,8171,8158,5127,7443,5137,8649,8170,8202,41.0173,
54,8112,8179,8150,5149,7438,5146,8644,8168,8204,41.033,
55,8105,8167,8150,5155,7433,5142,8654,8169,8202,41.0488,
56,8107,8156,8143,5169,7448,5157,8657,8169,8203,41.0645,
57,8102,8135,8154,5141,7432,5165,8652,8168,8205,41.0803,
58,8096,8136,8155,5093,7429,5151,8648,8170,8204,41.0961,
59,8097,8147,8144,5101,7422,5164,8652,8170,8205,41.1118,
60,8102,8151,8132,5113,7401,5194,8654,8167,8205,41.1276,
61,8109,8159,8128,5115,7389,5204,8646,8168,8205,41.1433,
62,8116,8159,8130,5124,7377,5222,8650,8168,8204,41.1591,
2,8166,8183,8140,5173,7399,5173,8650,8166,8203,41.2221,
3,8169,8187,8150,5141,7410,5145,8649,8166,8206,41.2379,
4,8170,8189,8142,5172,7436,5110,8652,8166,8204,41.2537,
5,8171,8187,8140,5174,7418,5098,8655,8169,8207,41.2694,
6,8166,8181,8143,5193,7433,5125,8651,8168,8205,41.2852,
7,8163,8184,8162,5165,7426,5138,8646,8171,8207,41.3009,
8,8171,8178,8162,5139,7426,5074,8648,8173,8208,41.3167,
9,8158,8164,8149,5152,7445,5074,8648,8170,8205,41.3325,
10,8147,8155,8152,5147,7450,5086,8644,8168,8203,41.3482,
11,8149,8153,8150,5138,7454,5113,8648,8147,8207,41.364,
12,8141,8130,8154,5126,7459,5089,8654,8169,8206,41.3797,
13,8134,8124,8141,5115,7452,5096,8656,8170,8208,41.3955,
14,8124,8143,8143,5108,7449,5093,8650,8169,8204,41.4113,
15,8120,8159,8137,5122,7449,5098,8644,8166,8205,41.427,
16,8114,8165,8132,5140,7448,5151,8650,8171,8203,41.4428,
17,8120,8166,8141,5134,7430,5164,8659,8169,8208,41.4586,
18,8127,8165,8140,5130,7433,5170,8657,8167,8204,41.4743,
19,8126,8170,8129,5116,7432,5217,8645,8169,8205,41.4901,
20,8138,8194,8128,5129,7434,5198,8644,8166,8207,41.5058,
21,8153,8221,8125,5133,7430,5172,8648,8166,8208,41.5216,
22,8161,8221,8124,5172,7435,5107,8653,8165,8209,41.5374,
23,8170,8225,8124,5195,7420,5083,8648,8165,8207,41.5531,
24,8159,8223,8124,5239,7443,5095,8646,8169,8208,41.5689,
25,8167,8208,8142,5229,7433,5068,8650,8174,8209,41.5846,
26,8163,8199,8139,5195,7432,5067,8648,8167,8209,41.6004,
27,8151,8184,8136,5192,7432,5068,8648,8168,8207,41.6162,
28,8144,8178,8142,5198,7443,5062,8645,8166,8207,41.6319,
29,8138,8163,8142,5165,7431,5055,8648,8170,8209,41.6477,
30,8131,8157,8148,5156,7439,5041,8654,8169,8210,41.6634,
31,8128,8171,8152,5198,7434,5051,8650,8185,8211,41.6792,
32,8137,8177,8151,5214,7439,5081,8648,8169,8207,41.695,
33,8132,8159,8146,5205,7428,5072,8646,8171,8211,41.7107,
34,8125,8151,8149,5197,7427,5071,8651,8168,8209,41.7265,
35,8127,8149,8141,5213,7421,5093,8646,8168,8209,41.7422,
36,8121,8146,8143,5174,7425,5122,8647,8168,8208,41.758,
37,8123,8146,8150,5195,7429,5115,8650,8168,8209,41.7738,
38,8131,8150,8145,5187,7427,5116,8649,8173,8211,41.7895,
39,8132,8140,8155,5164,7434,5105,8650,8167,8210,41.8053,
40,8138,8150,8145,5148,7430,5100,8656,8167,8209,41.821,
41,8133,8155,8138,5163,7419,5103,8644,8167,8210,41.8368,
42,8141,8168,8132,5174,7425,5114,8651,8171,8210,41.8526,
43,8143,8172,8136,5198,7425,5085,8648,8167,8209,41.8683,
44,8136,8164,8141,5215,7424,5084,8646,8176,8211,41.8841,
45,8137,8164,8143,5145,7426,5089,8647,8167,8211,41.8998,
46,8127,8167,8147,5167,7420,5088,8654,8166,8211,41.9156,
47,8136,8164,8140,5161,7415,5104,8648,8166,8210,41.9314,
48,8144,8163,8140,5145,7411,5091,8645,8167,8211,41.9471,
49,8147,8156,8113,5257,7442,5094,8648,8169,8212,41.9629,
50,8149,8152,8125,5197,7412,5053,8649,8164,8211,41.9786,
51,8155,8138,8133,5229,7426,5035,8646,8165,8213,41.9944,
52,8155,8151,8140,5193,7421,5024,8649,8168,8213,42.0102,
53,8145,8139,8137,5215,7419,5030,8658,8168,8212,42.0259,
54,8143,8140,8141,5190,7422,5048,8650,8179,8210,42.0417,
55,8138,8140,8162,5222,7447,5058,8648,8169,8210,42.0574,
56,8128,8131,8159,5225,7430,5082,8651,8168,8211,42.0732,
57,8130,8123,8164,5203,7427,5049,8648,8168,8211,42.089,
58,8117,8127,8167,5218,7439,5056,8646,8165,8209,42.1047,
59,8115,8119,8159,5210,7436,5108,8649,8166,8210,42.1205,
60,8113,8110,8165,5215,7449,5067,8651,8168,8211,42.1362,
61,8083,8108,8170,5214,7443,5094,8641,8166,8209,42.152,
62,8079,8114,8173,5132,7400,5187,8646,8169,8210,42.1678,
63,8087,8113,8171,5116,7397,5176,8651,8164,8209,42.1835,
0,8114,8122,8158,5108,7393,5169,8650,8170,8208,42.1993,
1,8132,8129,8146,5145,7379,5122,8654,8169,8209,42.2151,
